ts x y z roll pitch yaw vx vy vz wx wy wz ax ay az dwx dwy dwz jx jy jz ddwx ddwy ddwz
1702990812.250751000  -2.5  -0.3  1  0  0  -0.04  2e-07  -2e-07  -2e-07  0  0  0  0.000125  -0.000125  -0.000125  0  0  0  0  0  0  0  0  0 
1702990812.255736000  -2.5  -0.3  1  0  0  -0.04  1.7e-06  -1.7e-06  -1.7e-06  0  0  0  0.0005  -0.0005  -0.0005  0  0  0  0  0  0  0  0  0 
1702990812.260757000  -2.5  -0.3  1  0  0  -0.04  5.6e-06  -5.6e-06  -5.6e-06  0  0  0  0.001125  -0.001125  -0.001125  0  0  0  0  0  0  0  0  0 
1702990812.265736000  -2.5  -0.3  1  0  0  -0.0399999  1.33e-05  -1.33e-05  -1.33e-05  0  0  0  0.002  -0.002  -0.002  0  0  0  0  0  0  0  0  0 
1702990812.270750000  -2.5  -0.3  1  0  0  -0.0399997  2.6e-05  -2.6e-05  -2.6e-05  0  0  0  0.003125  -0.003125  -0.003125  0  0  0  0  0  0  0  0  0 
1702990812.275738000  -2.5  -0.3  1  0  0  -0.0399995  4.5e-05  -4.5e-05  -4.5e-05  0  0  0  0.0045  -0.0045  -0.0045  0  0  0  0  0  0  0  0  0 
1702990812.280738000  -2.5  -0.300001  0.999999  0  0  -0.039999  7.15e-05  -7.15e-05  -7.15e-05  0  0  0  0.006125  -0.006125  -0.006125  0  0  0  0  0  0  0  0  0 
1702990812.285735000  -2.5  -0.300001  0.999999  0  0  -0.0399983  0.0001067  -0.0001067  -0.0001067  0  0  0  0.008  -0.008  -0.008  0  0  0  0  0  0  0  0  0 
1702990812.290737000  -2.5  -0.300002  0.999998  0  0  -0.0399973  0.0001519  -0.0001519  -0.0001519  0  0  0  0.010125  -0.010125  -0.010125  0  0  0  0  0  0  0  0  0 
1702990812.295762000  -2.5  -0.300003  0.999997  0  0  -0.0399958  0.0002083  -0.0002083  -0.0002083  0  0  0  0.0125  -0.0125  -0.0125  0  0  0  0  0  0  0  0  0 
1702990812.300753000  -2.5  -0.300004  0.999996  0  0  -0.0399939  0.0002773  -0.0002773  -0.0002773  0  0  0  0.015125  -0.015125  -0.015125  0  0  0  0  0  0  0  0  0 
1702990812.305751000  -2.49999  -0.300005  0.999995  0  0  -0.0399914  0.00036  -0.00036  -0.00036  0  0  0  0.018  -0.018  -0.018  0  0  0  0  0  0  0  0  0 
1702990812.310753000  -2.49999  -0.300007  0.999993  0  0  -0.0399881  0.0004577  -0.0004577  -0.0004577  0  0  0  0.021125  -0.021125  -0.021125  0  0  0  0  0  0  0  0  0 
1702990812.315749000  -2.49999  -0.30001  0.99999  0  0  -0.039984  0.0005717  -0.0005717  -0.0005717  0  0  0  0.0245  -0.0245  -0.0245  0  0  0  0  0  0  0  0  0 
1702990812.320760000  -2.49999  -0.300013  0.999987  0  0  -0.0399789  0.0007031  -0.0007031  -0.0007031  0  0  0  0.028125  -0.028125  -0.028125  0  0  0  0  0  0  0  0  0 
1702990812.325735000  -2.49998  -0.300017  0.999983  0  0  -0.0399727  0.0008533  -0.0008533  -0.0008533  0  0  0  0.032  -0.032  -0.032  0  0  0  0  0  0  0  0  0 
1702990812.330762000  -2.49998  -0.300022  0.999978  0  0  -0.0399652  0.0010235  -0.0010235  -0.0010235  0  0  0  0.036125  -0.036125  -0.036125  0  0  0  0  0  0  0  0  0 
1702990812.335738000  -2.49997  -0.300027  0.999973  0  0  -0.0399563  0.001215  -0.001215  -0.001215  0  0  0  0.0405  -0.0405  -0.0405  0  0  0  0  0  0  0  0  0 
1702990812.340754000  -2.49997  -0.300034  0.999966  0  0  -0.0399457  0.001429  -0.001429  -0.001429  0  0  0  0.045125  -0.045125  -0.045125  0  0  0  0  0  0  0  0  0 
1702990812.345736000  -2.49996  -0.300042  0.999958  0  0  -0.0399333  0.0016667  -0.0016667  -0.0016667  0  0  0  0.05  -0.05  -0.05  0  0  0  0  0  0  0  0  0 
1702990812.350745000  -2.49995  -0.300051  0.999949  0  0  -0.039919  0.0019294  -0.0019294  -0.0019294  0  0  0  0.055125  -0.055125  -0.055125  0  0  0  0  0  0  0  0  0 
1702990812.355756000  -2.49994  -0.300061  0.999939  0  0  -0.0399024  0.0022183  -0.0022183  -0.0022183  0  0  0  0.0605  -0.0605  -0.0605  0  0  0  0  0  0  0  0  0 
1702990812.360738000  -2.49993  -0.300073  0.999927  0  0  -0.0398835  0.0025348  -0.0025348  -0.0025348  0  0  0  0.066125  -0.066125  -0.066125  0  0  0  0  0  0  0  0  0 
1702990812.365752000  -2.49991  -0.300086  0.999914  0  0  -0.0398619  0.00288  -0.00288  -0.00288  0  0  0  0.072  -0.072  -0.072  0  0  0  0  0  0  0  0  0 
1702990812.370743000  -2.4999  -0.300102  0.999898  0  0  -0.0398377  0.0032552  -0.0032552  -0.0032552  0  0  0  0.078125  -0.0781244  -0.078125  0  0  0  0  0  0  0  0  0 
1702990812.375735000  -2.49988  -0.300119  0.999881  0  0  -0.0398106  0.0036617  -0.0036612  -0.0036617  0  0  0  0.0845  -0.084225  -0.0845  0  0  0  0  0  0  0  0  0 
1702990812.380757000  -2.49986  -0.300138  0.999862  0  0  -0.0397804  0.0041006  -0.004097  -0.0041006  0  0  0  0.091125  -0.0900755  -0.091125  0  0  0  0  0  0  0  0  0 
1702990812.385746000  -2.49984  -0.30016  0.99984  0  0  -0.039747  0.0045733  -0.0045615  -0.0045733  0  0  0  0.098  -0.0956761  -0.098  0  0  0  0  0  0  0  0  0 
1702990812.390736000  -2.49982  -0.300184  0.999816  0  0  -0.0397104  0.005081  -0.0050534  -0.005081  0  0  0  0.105125  -0.101027  -0.105125  0  0  0  0  0  0  0  0  0 
1702990812.395747000  -2.49979  -0.300211  0.999789  0  0  -0.0396703  0.005625  -0.0055714  -0.005625  0  0  0  0.1125  -0.106127  -0.1125  0  0  0  0  0  0  0  0  0 
1702990812.400747000  -2.49976  -0.30024  0.999759  0  0  -0.0396267  0.0062065  -0.0061142  -0.0062065  0  0  0  0.120125  -0.110978  -0.120125  0  0  0  0  0  0  0  0  0 
1702990812.405737000  -2.49973  -0.300272  0.999727  0  0  -0.0395795  0.0068267  -0.0066807  -0.0068267  0  0  0  0.128  -0.115578  -0.128  0  0  0  0  0  0  0  0  0 
1702990812.410737000  -2.49969  -0.300307  0.999691  0  0  -0.0395285  0.0074869  -0.0072696  -0.0074869  0  0  0  0.136125  -0.119929  -0.136125  0  0  0  0  0  0  0  0  0 
1702990812.415739000  -2.49965  -0.300345  0.999652  0  0  -0.0394738  0.0081883  -0.0078796  -0.0081883  0  0  0  0.1445  -0.124029  -0.1445  0  0  0  0  0  0  0  0  0 
1702990812.420749000  -2.49961  -0.300385  0.999609  0  0  -0.0394151  0.0089323  -0.0085095  -0.0089323  0  0  0  0.153125  -0.12788  -0.153125  0  0  0  0  0  0  0  0  0 
1702990812.425738000  -2.49956  -0.30043  0.999563  0  0  -0.0393526  0.00972  -0.009158  -0.00972  0  0  0  0.162  -0.131481  -0.162  0  0  0  0  0  0  0  0  0 
1702990812.430754000  -2.49951  -0.300477  0.999512  0  0  -0.0392861  0.0105527  -0.0098239  -0.0105527  0  0  0  0.171125  -0.134831  -0.171125  0  0  0  0  0  0  0  0  0 
1702990812.435735000  -2.49946  -0.300528  0.999457  0  0  -0.0392156  0.0114317  -0.0105059  -0.0114317  0  0  0  0.1805  -0.137932  -0.1805  0  0  0  0  0  0  0  0  0 
1702990812.440763000  -2.4994  -0.300582  0.999398  0  0  -0.039141  0.0123581  -0.0112028  -0.0123581  0  0  0  0.190125  -0.140782  -0.190125  0  0  0  0  0  0  0  0  0 
1702990812.445739000  -2.49933  -0.30064  0.999333  0  0  -0.0390624  0.0133333  -0.0119133  -0.0133333  0  0  0  0.2  -0.143383  -0.2  0  0  0  0  0  0  0  0  0 
1702990812.450761000  -2.49926  -0.300701  0.999264  0  0  -0.0389797  0.0143585  -0.0126362  -0.0143585  0  0  0  0.210125  -0.145733  -0.210044  0  0  0  0  0  0  0  0  0 
1702990812.455736000  -2.49919  -0.300766  0.99919  0  0  -0.038893  0.015435  -0.0133702  -0.0154334  0  0  0  0.2205  -0.147834  -0.219886  0  0  0  0  0  0  0  0  0 
1702990812.460749000  -2.49911  -0.300835  0.99911  0  0  -0.0388022  0.016564  -0.0141141  -0.0165569  0  0  0  0.231125  -0.149685  -0.229477  0  0  0  0  0  0  0  0  0 
1702990812.465737000  -2.49902  -0.300907  0.999024  0  0  -0.0387074  0.0177467  -0.0148666  -0.0177277  0  0  0  0.242  -0.151285  -0.238818  0  0  0  0  0  0  0  0  0 
1702990812.470736000  -2.49893  -0.300984  0.998932  0  0  -0.0386086  0.0189844  -0.0156265  -0.0189447  0  0  0  0.253125  -0.152636  -0.247909  0  0  0  0  0  0  0  0  0 
1702990812.475748000  -2.49883  -0.301064  0.998834  0  0  -0.0385058  0.0202783  -0.0163926  -0.0202064  0  0  0  0.2645  -0.153736  -0.25675  0  0  0  0  0  0  0  0  0 
1702990812.480748000  -2.49873  -0.301148  0.99873  0  0  -0.0383991  0.0216298  -0.0171635  -0.0215117  0  0  0  0.276125  -0.154587  -0.265341  0  0  0  0  0  0  0  0  0 
1702990812.485739000  -2.49862  -0.301235  0.998619  0  0  -0.0382886  0.02304  -0.017938  -0.0228594  0  0  0  0.288  -0.155187  -0.273682  0  0  0  0  0  0  0  0  0 
1702990812.490747000  -2.4985  -0.301327  0.998502  0  0  -0.0381744  0.0245102  -0.0187149  -0.0242482  0  0  0  0.300125  -0.155538  -0.281773  0  0  0  0  0  0  0  0  0 
1702990812.495737000  -2.49837  -0.301423  0.998377  0  0  -0.0380564  0.0260417  -0.019493  -0.0256767  0  0  0  0.3125  -0.155638  -0.289614  0  0  0  0  0  0  0  0  0 
1702990812.500747000  -2.49824  -0.301522  0.998245  0  0  -0.0379348  0.0276356  -0.0202709  -0.0271439  0  0  0  0.325125  -0.155489  -0.297206  0  0  0  0  0  0  0  0  0 
1702990812.505752000  -2.4981  -0.301625  0.998105  0  0  -0.0378098  0.0292933  -0.0210475  -0.0286484  0  0  0  0.338  -0.15509  -0.304547  0  0  0  0  0  0  0  0  0 
1702990812.510744000  -2.49795  -0.301732  0.997958  0  0  -0.0376813  0.031016  -0.0218214  -0.0301889  0  0  0  0.351125  -0.15444  -0.311638  0  0  0  0  0  0  0  0  0 
1702990812.515735000  -2.49779  -0.301843  0.997803  0  0  -0.0375496  0.032805  -0.0225914  -0.0317643  0  0  0  0.3645  -0.153541  -0.318479  0  0  0  0  0  0  0  0  0 
1702990812.520759000  -2.49762  -0.301958  0.99764  0  0  -0.0374148  0.0346615  -0.0233564  -0.0333733  0  0  0  0.378125  -0.152391  -0.32507  0  0  0  0  0  0  0  0  0 
1702990812.525735000  -2.49744  -0.302077  0.99747  0  0  -0.037277  0.0365867  -0.0241149  -0.0350146  0  0  0  0.392  -0.150992  -0.331411  0  0  0  0  0  0  0  0  0 
1702990812.530763000  -2.49725  -0.302199  0.99729  0  0  -0.0371363  0.0385817  -0.0248659  -0.036687  0  0  0  0.405977  -0.149342  -0.337502  0  0  0  0  0  0  0  0  0 
1702990812.535747000  -2.49705  -0.302326  0.997103  0  0  -0.036993  0.040646  -0.025608  -0.0383892  0  0  0  0.419717  -0.147443  -0.343343  0  0  0  0  0  0  0  0  0 
1702990812.540762000  -2.49684  -0.302456  0.996906  0  0  -0.0368472  0.0427784  -0.0263399  -0.04012  0  0  0  0.433207  -0.145294  -0.348935  0  0  0  0  0  0  0  0  0 
1702990812.545753000  -2.49663  -0.302589  0.996701  0  0  -0.0366991  0.0449777  -0.0270605  -0.0418781  0  0  0  0.446448  -0.142894  -0.354276  0  0  0  0  0  0  0  0  0 
1702990812.550756000  -2.49639  -0.302726  0.996488  0  0  -0.0365488  0.0472425  -0.0277684  -0.0436624  0  0  0  0.459438  -0.140245  -0.359367  0  0  0  0  0  0  0  0  0 
1702990812.555736000  -2.49615  -0.302867  0.996265  0  0  -0.0363966  0.0495716  -0.0284625  -0.0454714  0  0  0  0.472178  -0.137345  -0.364208  0  0  0  0  0  0  0  0  0 
1702990812.560753000  -2.4959  -0.303011  0.996033  0  0  -0.0362426  0.0519639  -0.0291415  -0.047304  0  0  0  0.484668  -0.134196  -0.368799  0  0  0  0  0  0  0  0  0 
1702990812.565742000  -2.49563  -0.303158  0.995792  0  0  -0.0360871  0.0544179  -0.029804  -0.049159  0  0  0  0.496909  -0.130796  -0.37314  0  0  0  0  0  0  0  0  0 
1702990812.570736000  -2.49535  -0.303309  0.995541  0  0  -0.0359302  0.0569325  -0.030449  -0.051035  0  0  0  0.508899  -0.127147  -0.377231  0  0  0  0  0  0  0  0  0 
1702990812.575735000  -2.49506  -0.303463  0.995281  0  0  -0.0357721  0.0595065  -0.0310751  -0.0529309  0  0  0  0.520639  -0.123247  -0.381072  0  0  0  0  0  0  0  0  0 
1702990812.580756000  -2.49476  -0.303619  0.995012  0  0  -0.0356129  0.0621385  -0.0316811  -0.0548453  0  0  0  0.532129  -0.119098  -0.384663  0  0  0  0  0  0  0  0  0 
1702990812.585736000  -2.49444  -0.303779  0.994733  0  0  -0.0354528  0.0648274  -0.0322657  -0.0567771  0  0  0  0.54337  -0.114699  -0.388005  0  0  0  0  0  0  0  0  0 
1702990812.590736000  -2.49411  -0.303942  0.994444  0  0  -0.0352919  0.0675718  -0.0328276  -0.0587249  0  0  0  0.55436  -0.110049  -0.391096  0  0  0  0  0  0  0  0  0 
1702990812.595736000  -2.49377  -0.304108  0.994145  0  0  -0.0351303  0.0703705  -0.0333657  -0.0606876  0  0  0  0.5651  -0.10515  -0.393937  0  0  0  0  0  0  0  0  0 
1702990812.600760000  -2.49341  -0.304276  0.993837  0  0  -0.0349681  0.0732224  -0.0338787  -0.0626639  0  0  0  0.57559  -0.1  -0.396528  0  0  0  0  0  0  0  0  0 
1702990812.605739000  -2.49303  -0.304446  0.993519  0  0  -0.0348055  0.076126  -0.0343653  -0.0646525  0  0  0  0.58583  -0.0946008  -0.398869  0  0  0  0  0  0  0  0  0 
1702990812.610736000  -2.49265  -0.304619  0.993191  0  0  -0.0346425  0.0790803  -0.0348243  -0.0666522  0  0  0  0.595821  -0.0889514  -0.40096  0  0  0  0  0  0  0  0  0 
1702990812.615736000  -2.49224  -0.304795  0.992852  0  0  -0.0344792  0.0820838  -0.0352544  -0.0686617  0  0  0  0.605561  -0.0830519  -0.402801  0  0  0  0  0  0  0  0  0 
1702990812.620751000  -2.49182  -0.304972  0.992504  0  0  -0.0343157  0.0851354  -0.0356544  -0.0706798  0  0  0  0.615051  -0.0769079  -0.404392  0  0  0  0  0  0  0  0  0 
1702990812.625746000  -2.49139  -0.305151  0.992145  0  0  -0.034152  0.0882339  -0.0360237  -0.0727052  0  0  0  0.624291  -0.0708318  -0.405734  0  0  0  0  0  0  0  0  0 
1702990812.630750000  -2.49094  -0.305332  0.991777  0  0  -0.0339882  0.0913779  -0.0363631  -0.0747367  0  0  0  0.633282  -0.0650056  -0.406825  0  0  0  0  0  0  0  0  0 
1702990812.635749000  -2.49048  -0.305515  0.991398  0  0  -0.0338243  0.0945663  -0.0366741  -0.076773  0  0  0  0.642022  -0.0594295  -0.407666  0  0  0  0  0  0  0  0  0 
1702990812.640754000  -2.49  -0.305699  0.991009  0  0  -0.0336604  0.0977977  -0.0369579  -0.0788129  0  0  0  0.650512  -0.0541034  -0.408257  0  0  0  0  0  0  0  0  0 
1702990812.645737000  -2.4895  -0.305884  0.99061  0  0  -0.0334965  0.101071  -0.0372156  -0.0808552  0  0  0  0.658752  -0.0490273  -0.408598  0  0  0  0  0  0  0  0  0 
1702990812.650735000  -2.48899  -0.306071  0.990201  0  0  -0.0333326  0.104385  -0.0374485  -0.0828985  0  0  0  0.666743  -0.0442011  -0.408689  0  0  0  0  0  0  0  0  0 
1702990812.655752000  -2.48846  -0.306259  0.989781  0  0  -0.0331687  0.107738  -0.037658  -0.0849416  0  0  0  0.674483  -0.039625  -0.40853  0  0  0  0  0  0  0  0  0 
1702990812.660752000  -2.48791  -0.306447  0.989351  0  0  -0.0330048  0.111129  -0.0378452  -0.0869834  0  0  0  0.681973  -0.0352989  -0.408121  0  0  0  0  0  0  0  0  0 
1702990812.665753000  -2.48734  -0.306637  0.988911  0  0  -0.0328409  0.114557  -0.0380114  -0.0890224  0  0  0  0.689213  -0.0312228  -0.407462  0  0  0  0  0  0  0  0  0 
1702990812.670765000  -2.48676  -0.306827  0.988461  0  0  -0.032677  0.118021  -0.0381579  -0.0910576  0  0  0  0.696203  -0.0273966  -0.406554  0  0  0  0  0  0  0  0  0 
1702990812.675768000  -2.48616  -0.307019  0.988001  0  0  -0.0325131  0.121519  -0.0382858  -0.0930876  0  0  0  0.702944  -0.0238205  -0.405395  0  0  0  0  0  0  0  0  0 
1702990812.680766000  -2.48555  -0.30721  0.98753  0  0  -0.0323491  0.12505  -0.0383965  -0.0951111  0  0  0  0.709434  -0.0204944  -0.403986  0  0  0  0  0  0  0  0  0 
1702990812.685744000  -2.48491  -0.307402  0.987049  0  0  -0.0321852  0.128613  -0.0384912  -0.097127  0  0  0  0.715674  -0.0174183  -0.402327  0  0  0  0  0  0  0  0  0 
1702990812.690747000  -2.48426  -0.307595  0.986559  0  0  -0.0320213  0.132206  -0.0385711  -0.099134  0  0  0  0.721664  -0.0145921  -0.400418  0  0  0  0  0  0  0  0  0 
1702990812.695743000  -2.48359  -0.307788  0.986058  0  0  -0.0318574  0.135829  -0.0386375  -0.101131  0  0  0  0.727405  -0.012016  -0.398259  0  0  0  0  0  0  0  0  0 
1702990812.700757000  -2.4829  -0.307981  0.985548  0  0  -0.0316935  0.13948  -0.0386917  -0.103116  0  0  0  0.732895  -0.0096899  -0.39585  0  0  0  0  0  0  0  0  0 
1702990812.705738000  -2.4822  -0.308175  0.985027  0  0  -0.0315296  0.143158  -0.0387348  -0.105089  0  0  0  0.738135  -0.0076138  -0.393191  0  0  0  0  0  0  0  0  0 
1702990812.710750000  -2.48147  -0.308369  0.984497  0  0  -0.0313657  0.146861  -0.0387682  -0.107048  0  0  0  0.743125  -0.0057877  -0.390283  0  0  0  0  0  0  0  0  0 
1702990812.715735000  -2.48073  -0.308563  0.983957  0  0  -0.0312018  0.150588  -0.0387931  -0.108991  0  0  0  0.747866  -0.0042115  -0.387124  0  0  0  0  0  0  0  0  0 
1702990812.720744000  -2.47997  -0.308757  0.983407  0  0  -0.0310378  0.154339  -0.0388107  -0.110918  0  0  0  0.752356  -0.0028854  -0.383715  0  0  0  0  0  0  0  0  0 
1702990812.725736000  -2.47918  -0.308951  0.982847  0  0  -0.0308739  0.158112  -0.0388224  -0.112828  0  0  0  0.756596  -0.0018093  -0.380056  0  0  0  0  0  0  0  0  0 
1702990812.730735000  -2.47838  -0.309145  0.982279  0  0  -0.03071  0.161905  -0.0388292  -0.114719  0  0  0  0.760586  -0.0009831  -0.376147  0  0  0  0  0  0  0  0  0 
1702990812.735735000  -2.47757  -0.309339  0.9817  0  0  -0.0305461  0.165717  -0.0388326  -0.116589  0  0  0  0.764326  -0.000407  -0.371988  0  0  0  0  0  0  0  0  0 
1702990812.740736000  -2.47673  -0.309533  0.981113  0  0  -0.0303822  0.169548  -0.0388337  -0.118438  0  0  0  0.767817  -8.09e-05  -0.367579  0  0  0  0  0  0  0  0  0 
1702990812.745746000  -2.47587  -0.309727  0.980516  0  0  -0.0302183  0.173395  -0.0388338  -0.120264  0  0  0  0.771057  2.9e-06  -0.36292  0  0  0  0  0  0  0  0  0 
1702990812.750735000  -2.47499  -0.309922  0.97991  0  0  -0.0300544  0.177258  -0.0388335  -0.122067  0  0  0  0.774047  0.0001658  -0.358011  0  0  0  0  0  0  0  0  0 
1702990812.755744000  -2.4741  -0.310116  0.979295  0  0  -0.0298904  0.181135  -0.0388318  -0.123844  0  0  0  0.776787  0.0005787  -0.352853  0  0  0  0  0  0  0  0  0 
1702990812.760742000  -2.47318  -0.31031  0.978672  0  0  -0.0297265  0.185025  -0.0388273  -0.125595  0  0  0  0.779278  0.0012416  -0.347444  0  0  0  0  0  0  0  0  0 
1702990812.765746000  -2.47225  -0.310504  0.978039  0  0  -0.0295626  0.188927  -0.0388189  -0.127318  0  0  0  0.781518  0.0021545  -0.341785  0  0  0  0  0  0  0  0  0 
1702990812.770737000  -2.47129  -0.310698  0.977399  0  0  -0.0293987  0.19284  -0.0388054  -0.129012  0  0  0  0.783508  0.0033174  -0.335876  0  0  0  0  0  0  0  0  0 
1702990812.775736000  -2.47032  -0.310892  0.976749  0  0  -0.0292348  0.196762  -0.0387853  -0.130676  0  0  0  0.785248  0.0047303  -0.329717  0  0  0  0  0  0  0  0  0 
1702990812.780743000  -2.46932  -0.311086  0.976092  0  0  -0.0290709  0.200692  -0.0387576  -0.132309  0  0  0  0.786739  0.0063932  -0.323308  0  0  0  0  0  0  0  0  0 
1702990812.785739000  -2.46831  -0.31128  0.975426  0  0  -0.028907  0.204629  -0.038721  -0.133909  0  0  0  0.787979  0.0083061  -0.316649  0  0  0  0  0  0  0  0  0 
1702990812.790736000  -2.46728  -0.311473  0.974753  0  0  -0.0287431  0.208571  -0.0386742  -0.135475  0  0  0  0.788969  0.010469  -0.30974  0  0  0  0  0  0  0  0  0 
1702990812.795736000  -2.46623  -0.311666  0.974072  0  0  -0.0285792  0.212518  -0.0386159  -0.137006  0  0  0  0.789709  0.0128819  -0.302582  0  0  0  0  0  0  0  0  0 
1702990812.800758000  -2.46515  -0.311859  0.973383  0  0  -0.0284152  0.216468  -0.0385449  -0.138501  0  0  0  0.7902  0.0155448  -0.295173  0  0  0  0  0  0  0  0  0 
1702990812.805739000  -2.46406  -0.312052  0.972687  0  0  -0.0282513  0.22042  -0.03846  -0.139957  0  0  0  0.79044  0.0184578  -0.287514  0  0  0  0  0  0  0  0  0 
1702990812.810738000  -2.46295  -0.312244  0.971983  0  0  -0.0280874  0.224372  -0.0383599  -0.141375  0  0  0  0.79043  0.0216207  -0.279605  0  0  0  0  0  0  0  0  0 
1702990812.815736000  -2.46182  -0.312435  0.971273  0  0  -0.0279235  0.228324  -0.0382434  -0.142753  0  0  0  0.79017  0.0250336  -0.271446  0  0  0  0  0  0  0  0  0 
1702990812.820733000  -2.46067  -0.312626  0.970556  0  0  -0.0277596  0.232273  -0.0381092  -0.144089  0  0  0  0.78966  0.0286965  -0.263037  0  0  0  0  0  0  0  0  0 
1702990812.825736000  -2.45949  -0.312816  0.969832  0  0  -0.0275957  0.23622  -0.037956  -0.145383  0  0  0  0.788901  0.0326094  -0.254378  0  0  0  0  0  0  0  0  0 
1702990812.830735000  -2.4583  -0.313006  0.969102  0  0  -0.0274318  0.240162  -0.0377827  -0.146633  0  0  0  0.787891  0.0367723  -0.245469  0  0  0  0  0  0  0  0  0 
1702990812.835753000  -2.45709  -0.313194  0.968366  0  0  -0.0272679  0.244098  -0.0375879  -0.147837  0  0  0  0.786631  0.0411852  -0.23631  0  0  0  0  0  0  0  0  0 
1702990812.840748000  -2.45586  -0.313382  0.967624  0  0  -0.0271039  0.248028  -0.0373704  -0.148995  0  0  0  0.785121  0.0458481  -0.226902  0  0  0  0  0  0  0  0  0 
1702990812.845749000  -2.45461  -0.313568  0.966876  0  0  -0.02694  0.251949  -0.037129  -0.150106  0  0  0  0.783362  0.050761  -0.217243  0  0  0  0  0  0  0  0  0 
1702990812.850743000  -2.45334  -0.313753  0.966123  0  0  -0.0267761  0.255861  -0.0368624  -0.151167  0  0  0  0.781352  0.0559239  -0.207334  0  0  0  0  0  0  0  0  0 
1702990812.855758000  -2.45205  -0.313936  0.965364  0  0  -0.0266122  0.259762  -0.0365693  -0.152179  0  0  0  0.779092  0.0613368  -0.197299  0  0  0  0  0  0  0  0  0 
1702990812.860734000  -2.45075  -0.314119  0.964601  0  0  -0.0264483  0.263651  -0.0362486  -0.153141  0  0  0  0.776582  0.0669997  -0.187491  0  0  0  0  0  0  0  0  0 
1702990812.865755000  -2.44942  -0.314299  0.963833  0  0  -0.0262844  0.267528  -0.0358989  -0.154054  0  0  0  0.773823  0.0729126  -0.177934  0  0  0  0  0  0  0  0  0 
1702990812.870755000  -2.44807  -0.314477  0.963061  0  0  -0.0261205  0.271389  -0.035519  -0.154921  0  0  0  0.770813  0.0790755  -0.168627  0  0  0  0  0  0  0  0  0 
1702990812.875756000  -2.4467  -0.314654  0.962284  0  0  -0.0259566  0.275235  -0.0351077  -0.155741  0  0  0  0.767553  0.0854885  -0.15957  0  0  0  0  0  0  0  0  0 
1702990812.880750000  -2.44532  -0.314828  0.961503  0  0  -0.0257926  0.279064  -0.0346637  -0.156517  0  0  0  0.764043  0.0921514  -0.150762  0  0  0  0  0  0  0  0  0 
1702990812.885748000  -2.44391  -0.315001  0.960719  0  0  -0.0256287  0.282875  -0.0341858  -0.157249  0  0  0  0.760283  0.0990643  -0.142205  0  0  0  0  0  0  0  0  0 
1702990812.890759000  -2.44249  -0.31517  0.959931  0  0  -0.0254648  0.286667  -0.0336727  -0.157939  0  0  0  0.756274  0.106227  -0.133898  0  0  0  0  0  0  0  0  0 
1702990812.895752000  -2.44105  -0.315337  0.95914  0  0  -0.0253009  0.290438  -0.0331231  -0.158588  0  0  0  0.752014  0.11364  -0.125841  0  0  0  0  0  0  0  0  0 
1702990812.900770000  -2.43959  -0.315501  0.958345  0  0  -0.025137  0.294187  -0.0325359  -0.159198  0  0  0  0.747504  0.121303  -0.118033  0  0  0  0  0  0  0  0  0 
1702990812.905741000  -2.4381  -0.315663  0.957548  0  0  -0.0249731  0.297912  -0.0319097  -0.159769  0  0  0  0.742744  0.129216  -0.110476  0  0  0  0  0  0  0  0  0 
1702990812.910739000  -2.43661  -0.31582  0.956747  0  0  -0.0248092  0.301614  -0.0312433  -0.160303  0  0  0  0.737735  0.137379  -0.103169  0  0  0  0  0  0  0  0  0 
1702990812.915737000  -2.43509  -0.315975  0.955945  0  0  -0.0246453  0.305289  -0.0305355  -0.160801  0  0  0  0.732475  0.145792  -0.0961118  0  0  0  0  0  0  0  0  0 
1702990812.920748000  -2.43355  -0.316126  0.955139  0  0  -0.0244813  0.308938  -0.029785  -0.161265  0  0  0  0.726965  0.154455  -0.0893045  0  0  0  0  0  0  0  0  0 
1702990812.925738000  -2.432  -0.316273  0.954332  0  0  -0.0243174  0.312558  -0.0289905  -0.161695  0  0  0  0.721205  0.163368  -0.0827473  0  0  0  0  0  0  0  0  0 
1702990812.930749000  -2.43043  -0.316416  0.953523  0  0  -0.0241535  0.31615  -0.0281509  -0.162093  0  0  0  0.715196  0.17253  -0.0764401  0  0  0  0  0  0  0  0  0 
1702990812.935736000  -2.42884  -0.316554  0.952711  0  0  -0.0239896  0.31971  -0.0272648  -0.16246  0  0  0  0.708936  0.181943  -0.0703828  0  0  0  0  0  0  0  0  0 
1702990812.940758000  -2.42723  -0.316688  0.951898  0  0  -0.0238257  0.323238  -0.026331  -0.162797  0  0  0  0.702426  0.191606  -0.0645756  0  0  0  0  0  0  0  0  0 
1702990812.945737000  -2.42561  -0.316817  0.951083  0  0  -0.0236618  0.326734  -0.0253483  -0.163106  0  0  0  0.695666  0.201519  -0.0590184  0  0  0  0  0  0  0  0  0 
1702990812.950750000  -2.42396  -0.316942  0.950267  0  0  -0.0234979  0.330195  -0.0243154  -0.163387  0  0  0  0.688656  0.211682  -0.0537111  0  0  0  0  0  0  0  0  0 
1702990812.955735000  -2.4223  -0.31706  0.949449  0  0  -0.023334  0.33362  -0.0232311  -0.163643  0  0  0  0.681397  0.222095  -0.0486539  0  0  0  0  0  0  0  0  0 
1702990812.960766000  -2.42063  -0.317174  0.948631  0  0  -0.02317  0.337008  -0.022094  -0.163874  0  0  0  0.673887  0.232758  -0.0438466  0  0  0  0  0  0  0  0  0 
1702990812.965737000  -2.41893  -0.317281  0.947811  0  0  -0.0230061  0.340358  -0.0209031  -0.164082  0  0  0  0.666127  0.243671  -0.0392894  0  0  0  0  0  0  0  0  0 
1702990812.970735000  -2.41722  -0.317383  0.94699  0  0  -0.0228422  0.343669  -0.0196569  -0.164268  0  0  0  0.658117  0.254834  -0.0349822  0  0  0  0  0  0  0  0  0 
1702990812.975737000  -2.4155  -0.317478  0.946168  0  0  -0.0226783  0.346939  -0.0183543  -0.164432  0  0  0  0.649858  0.266247  -0.0309249  0  0  0  0  0  0  0  0  0 
1702990812.980769000  -2.41375  -0.317566  0.945346  0  0  -0.0225144  0.350167  -0.016994  -0.164577  0  0  0  0.641348  0.277909  -0.0271177  0  0  0  0  0  0  0  0  0 
1702990812.985736000  -2.412  -0.317648  0.944522  0  0  -0.0223505  0.353352  -0.0155748  -0.164704  0  0  0  0.632588  0.289822  -0.0235605  0  0  0  0  0  0  0  0  0 
1702990812.990764000  -2.41022  -0.317722  0.943699  0  0  -0.0221866  0.356493  -0.0140954  -0.164813  0  0  0  0.623578  0.301985  -0.0202532  0  0  0  0  0  0  0  0  0 
1702990812.995735000  -2.40843  -0.317788  0.942874  0  0  -0.0220227  0.359588  -0.0125545  -0.164907  0  0  0  0.614319  0.314398  -0.017196  0  0  0  0  0  0  0  0  0 
1702990813.000761000  -2.40663  -0.317847  0.942049  0  0  -0.0218587  0.362636  -0.010951  -0.164986  0  0  0  0.604809  0.327061  -0.0143888  0  0  0  0  0  0  0  0  0 
1702990813.005740000  -2.4048  -0.317898  0.941224  0  0  -0.0216948  0.365635  -0.0092835  -0.165051  0  0  0  0.595049  0.339974  -0.0118315  0  0  0  0  0  0  0  0  0 
1702990813.010739000  -2.40297  -0.31794  0.940399  0  0  -0.0215309  0.368586  -0.0075508  -0.165105  0  0  0  0.585039  0.353137  -0.0095243  0  0  0  0  0  0  0  0  0 
1702990813.015736000  -2.40112  -0.317973  0.939573  0  0  -0.021367  0.371485  -0.0057517  -0.165147  0  0  0  0.57478  0.36655  -0.0074671  0  0  0  0  0  0  0  0  0 
1702990813.020762000  -2.39925  -0.317997  0.938748  0  0  -0.0212031  0.374333  -0.0038849  -0.16518  0  0  0  0.56427  0.380213  -0.0056598  0  0  0  0  0  0  0  0  0 
1702990813.025738000  -2.39738  -0.318012  0.937922  0  0  -0.0210392  0.377128  -0.0019492  -0.165204  0  0  0  0.55351  0.394126  -0.0041026  0  0  0  0  0  0  0  0  0 
1702990813.030734000  -2.39548  -0.318017  0.937096  0  0  -0.0208753  0.379868  5.68e-05  -0.165221  0  0  0  0.5425  0.408289  -0.0027954  0  0  0  0  0  0  0  0  0 
1702990813.035734000  -2.39358  -0.318011  0.936269  0  0  -0.0207114  0.382552  0.0021341  -0.165232  0  0  0  0.53124  0.422701  -0.0017381  0  0  0  0  0  0  0  0  0 
1702990813.040743000  -2.39166  -0.317995  0.935443  0  0  -0.0205475  0.38518  0.0042842  -0.165239  0  0  0  0.519731  0.437364  -0.0009309  0  0  0  0  0  0  0  0  0 
1702990813.045735000  -2.38973  -0.317968  0.934617  0  0  -0.0203835  0.387749  0.0065082  -0.165242  0  0  0  0.507971  0.452277  -0.0003737  0  0  0  0  0  0  0  0  0 
1702990813.050767000  -2.38778  -0.31793  0.933791  0  0  -0.0202196  0.390259  0.0088074  -0.165243  0  0  0  0.495961  0.46744  -6.64e-05  0  0  0  0  0  0  0  0  0 
1702990813.055738000  -2.38582  -0.31788  0.932965  0  0  -0.0200557  0.392708  0.011183  -0.165243  0  0  0  0.483701  0.482853  -0  0  0  0  0  0  0  0  0  0 
1702990813.060761000  -2.38385  -0.317818  0.932138  0  0  -0.0198918  0.395096  0.0136363  -0.165243  0  0  0  0.471192  0.498516  -0  0  0  0  0  0  0  0  0  0 
1702990813.065734000  -2.38187  -0.317744  0.931312  0  0  -0.0197279  0.39742  0.0161686  -0.165243  0  0  0  0.458432  0.514429  -0  0  0  0  0  0  0  0  0  0 
1702990813.070749000  -2.37988  -0.317656  0.930486  0  0  -0.019564  0.399679  0.018781  -0.165243  0  0  0  0.445422  0.530592  -0  0  0  0  0  0  0  0  0  0 
1702990813.075748000  -2.37788  -0.317556  0.92966  0  0  -0.0194001  0.401873  0.0214749  -0.165243  0  0  0  0.432162  0.547005  -0  0  0  0  0  0  0  0  0  0 
1702990813.080754000  -2.37586  -0.317441  0.928834  0  0  -0.0192362  0.404001  0.0242515  -0.165243  0  0  0  0.418653  0.563668  -0  0  0  0  0  0  0  0  0  0 
1702990813.085748000  -2.37384  -0.317313  0.928007  0  0  -0.0190722  0.40606  0.027112  -0.165243  0  0  0  0.404893  0.580581  -0  0  0  0  0  0  0  0  0  0 
1702990813.090735000  -2.3718  -0.31717  0.927181  0  0  -0.0189083  0.408049  0.0300577  -0.165243  0  0  0  0.390907  0.597743  -0  0  0  0  0  0  0  0  0  0 
1702990813.095735000  -2.36975  -0.317012  0.926355  0  0  -0.0187444  0.409969  0.0330899  -0.165243  0  0  0  0.377051  0.615156  -0  0  0  0  0  0  0  0  0  0 
1702990813.100771000  -2.3677  -0.316839  0.925529  0  0  -0.0185805  0.41182  0.0362097  -0.165243  0  0  0  0.363446  0.632819  -0  0  0  0  0  0  0  0  0  0 
1702990813.105750000  -2.36564  -0.31665  0.924702  0  0  -0.0184166  0.413604  0.0394185  -0.165243  0  0  0  0.35009  0.650732  -0  0  0  0  0  0  0  0  0  0 
1702990813.110734000  -2.36356  -0.316445  0.923876  0  0  -0.0182527  0.415321  0.0427174  -0.165243  0  0  0  0.336985  0.668895  -0  0  0  0  0  0  0  0  0  0 
1702990813.115750000  -2.36148  -0.316223  0.92305  0  0  -0.0180888  0.416974  0.0461078  -0.165243  0  0  0  0.324129  0.687308  -0  0  0  0  0  0  0  0  0  0 
1702990813.120734000  -2.35939  -0.315984  0.922224  0  0  -0.0179249  0.418563  0.0495909  -0.165243  0  0  0  0.311524  0.70597  -0  0  0  0  0  0  0  0  0  0 
1702990813.125749000  -2.3573  -0.315727  0.921398  0  0  -0.0177609  0.42009  0.0531675  -0.165243  0  0  0  0.299169  0.724606  -0  0  0  0  0  0  0  0  0  0 
1702990813.130736000  -2.35519  -0.315452  0.920571  0  0  -0.017597  0.421555  0.0568366  -0.165243  0  0  0  0.287063  0.742991  -0  0  0  0  0  0  0  0  0  0 
1702990813.135748000  -2.35308  -0.315158  0.919745  0  0  -0.0174331  0.422961  0.060597  -0.165243  0  0  0  0.275208  0.761127  -0  0  0  0  0  0  0  0  0  0 
1702990813.140751000  -2.35096  -0.314846  0.918919  0  0  -0.0172692  0.424308  0.0644474  -0.165243  0  0  0  0.263602  0.779012  -0  0  0  0  0  0  0  0  0  0 
1702990813.145747000  -2.34884  -0.314514  0.918093  0  0  -0.0171053  0.425597  0.0683867  -0.165243  0  0  0  0.252247  0.796648  -0  0  0  0  0  0  0  0  0  0 
1702990813.150749000  -2.34671  -0.314162  0.917266  0  0  -0.0169414  0.426831  0.0724135  -0.165243  0  0  0  0.241141  0.814034  -0  0  0  0  0  0  0  0  0  0 
1702990813.155735000  -2.34457  -0.313789  0.91644  0  0  -0.0167775  0.428009  0.0765266  -0.165243  0  0  0  0.230286  0.831169  -0  0  0  0  0  0  0  0  0  0 
1702990813.160748000  -2.34243  -0.313396  0.915614  0  0  -0.0166136  0.429134  0.0807248  -0.165243  0  0  0  0.21968  0.848055  -0  0  0  0  0  0  0  0  0  0 
1702990813.165736000  -2.34028  -0.312982  0.914788  0  0  -0.0164496  0.430206  0.0850067  -0.165243  0  0  0  0.209325  0.86469  -0  0  0  0  0  0  0  0  0  0 
1702990813.170735000  -2.33813  -0.312546  0.913962  0  0  -0.0162857  0.431228  0.0893712  -0.165243  0  0  0  0.199219  0.881076  -0  0  0  0  0  0  0  0  0  0 
1702990813.175735000  -2.33597  -0.312088  0.913135  0  0  -0.0161218  0.432199  0.0938171  -0.165243  0  0  0  0.189364  0.897211  -0  0  0  0  0  0  0  0  0  0 
1702990813.180758000  -2.3338  -0.311608  0.912309  0  0  -0.0159579  0.433122  0.0983429  -0.165243  0  0  0  0.179758  0.913097  -0  0  0  0  0  0  0  0  0  0 
1702990813.185735000  -2.33164  -0.311104  0.911483  0  0  -0.015794  0.433997  0.102948  -0.165243  0  0  0  0.170403  0.928733  -0  0  0  0  0  0  0  0  0  0 
1702990813.190735000  -2.32946  -0.310578  0.910657  0  0  -0.0156301  0.434826  0.10763  -0.165243  0  0  0  0.161298  0.944118  -0  0  0  0  0  0  0  0  0  0 
1702990813.195735000  -2.32729  -0.310028  0.909831  0  0  -0.0154662  0.43561  0.112388  -0.165243  0  0  0  0.152442  0.959254  -0  0  0  0  0  0  0  0  0  0 
1702990813.200749000  -2.32511  -0.309454  0.909004  0  0  -0.0153023  0.436351  0.117222  -0.165243  0  0  0  0.143837  0.974139  -0  0  0  0  0  0  0  0  0  0 
1702990813.205735000  -2.32293  -0.308856  0.908178  0  0  -0.0151383  0.437049  0.122129  -0.165243  0  0  0  0.135481  0.988775  -0  0  0  0  0  0  0  0  0  0 
1702990813.210759000  -2.32074  -0.308233  0.907352  0  0  -0.0149744  0.437706  0.127109  -0.165243  0  0  0  0.127376  1.00316  -0  0  0  0  0  0  0  0  0  0 
1702990813.215737000  -2.31855  -0.307584  0.906526  0  0  -0.0148105  0.438323  0.132161  -0.165243  0  0  0  0.11952  1.0173  -0  0  0  0  0  0  0  0  0  0 
1702990813.220759000  -2.31636  -0.306911  0.905699  0  0  -0.0146467  0.438902  0.137282  -0.165243  0  0  0  0.111915  1.03118  -0  0  0  0  0  0  0  0  0  0 
1702990813.225737000  -2.31416  -0.306212  0.904873  0  0  -0.0144828  0.439443  0.142472  -0.165243  0  0  0  0.104559  1.04482  -0  0  0  0  0  0  0  0  0  0 
1702990813.230738000  -2.31196  -0.305486  0.904047  0  0  -0.0143191  0.439948  0.14773  -0.165243  0  0  0  0.0974538  1.0582  -0  0  0  0  0  0  0  0  0  0 
1702990813.235735000  -2.30976  -0.304734  0.903221  0  0  -0.0141555  0.440418  0.153054  -0.165243  0  0  0  0.0905983  1.07134  -0  0  0  0  0  0  0  0  0  0 
1702990813.240749000  -2.30756  -0.303955  0.902395  0  0  -0.0139921  0.440854  0.158443  -0.165243  0  0  0  0.0839929  1.08422  -0  0  0  0  0  0  0  0  0  0 
1702990813.245736000  -2.30535  -0.30315  0.901568  0  0  -0.0138289  0.441258  0.163895  -0.165243  0  0  0  0.0776374  1.09686  -0  0  0  0  0  0  0  0  0  0 
1702990813.250737000  -2.30314  -0.302316  0.900742  0  0  -0.0136661  0.441631  0.169411  -0.165243  0  0  0  0.0715319  1.10925  -0  0  0  0  0  0  0  0  0  0 
1702990813.255735000  -2.30094  -0.301455  0.899916  0  0  -0.0135037  0.441974  0.174987  -0.165243  0  0  0  0.0656765  1.12138  -0  0  0  0  0  0  0  0  0  0 
1702990813.260757000  -2.29872  -0.300566  0.89909  0  0  -0.0133418  0.442288  0.180624  -0.165243  0  0  0  0.060071  1.13327  -0  0  0  0  0  0  0  0  0  0 
1702990813.265736000  -2.29651  -0.299649  0.898264  0  0  -0.0131806  0.442575  0.18632  -0.165243  0  0  0  0.0547155  1.1449  -0  0  0  0  0  0  0  0  0  0 
1702990813.270750000  -2.2943  -0.298703  0.897437  0  0  -0.0130201  0.442836  0.192073  -0.165243  0  0  0  0.0496101  1.15629  -0  0  0  0  0  0  0  0  0  0 
1702990813.275737000  -2.29208  -0.297728  0.896611  0  0  -0.0128604  0.443071  0.197882  -0.165243  0  0  0  0.0447546  1.16742  -0  0  0  0  0  0  0  0  0  0 
1702990813.280757000  -2.28987  -0.296724  0.895785  0  0  -0.0127018  0.443284  0.203747  -0.165243  0  0  0  0.0401491  1.17831  -0  0  0  0  0  0  0  0  0  0 
1702990813.285747000  -2.28765  -0.295691  0.894959  0  0  -0.0125443  0.443473  0.209665  -0.165243  0  0  0  0.0357937  1.18894  -0  0  0  0  0  0  0  0  0  0 
1702990813.290750000  -2.28543  -0.294627  0.894132  0  0  -0.0123881  0.443642  0.215636  -0.165243  0  0  0  0.0316882  1.19933  -0  0  0  0  0  0  0  0  0  0 
1702990813.295735000  -2.28321  -0.293534  0.893306  0  0  -0.0122334  0.443791  0.221658  -0.165243  0  0  0  0.0278327  1.20947  -0  0  0  0  0  0  0  0  0  0 
1702990813.300768000  -2.281  -0.292411  0.89248  0  0  -0.0120804  0.443921  0.22773  -0.165243  0  0  0  0.0242273  1.21935  -0  0  0  0  0  0  0  0  0  0 
1702990813.305739000  -2.27878  -0.291257  0.891654  0  0  -0.0119292  0.444033  0.233851  -0.165243  0  0  0  0.0208718  1.22899  -0  0  0  0  0  0  0  0  0  0 
1702990813.310738000  -2.27656  -0.290072  0.890828  0  0  -0.01178  0.44413  0.240019  -0.165243  0  0  0  0.0177663  1.23837  -0  0  0  0  0  0  0  0  0  0 
1702990813.315735000  -2.27433  -0.288857  0.890001  0  0  -0.0116331  0.444211  0.246234  -0.165243  0  0  0  0.0149109  1.24751  -0  0  0  0  0  0  0  0  0  0 
1702990813.320756000  -2.27211  -0.28761  0.889175  0  0  -0.0114886  0.444279  0.252494  -0.165243  0  0  0  0.0123054  1.25639  -0  0  0  0  0  0  0  0  0  0 
1702990813.325740000  -2.26989  -0.286332  0.888349  0  0  -0.0113468  0.444335  0.258798  -0.165243  0  0  0  0.00995  1.26503  -0  0  0  0  0  0  0  0  0  0 
1702990813.330744000  -2.26767  -0.285022  0.887523  0  0  -0.011208  0.444379  0.265144  -0.165243  0  0  0  0.0078445  1.27341  -0  0  0  0  0  0  0  0  0  0 
1702990813.335741000  -2.26545  -0.28368  0.886697  0  0  -0.0110723  0.444414  0.271531  -0.165243  0  0  0  0.005989  1.28155  -0  0  0  0  0  0  0  0  0  0 
1702990813.340758000  -2.26323  -0.282306  0.88587  0  0  -0.01094  0.44444  0.277959  -0.165243  0  0  0  0.0043836  1.28944  -0  0  0  0  0  0  0  0  0  0 
1702990813.345740000  -2.261  -0.2809  0.885044  0  0  -0.0108114  0.444458  0.284425  -0.165243  0  0  0  0.0030281  1.29707  -0  0  0  0  0  0  0  0  0  0 
1702990813.350736000  -2.25878  -0.279462  0.884218  0  0  -0.0106867  0.44447  0.290929  -0.165243  0  0  0  0.0019226  1.30446  -0  0  0  0  0  0  0  0  0  0 
1702990813.355737000  -2.25656  -0.277991  0.883392  0  0  -0.010566  0.444478  0.297469  -0.165243  0  0  0  0.0010672  1.31159  -0  0  0  0  0  0  0  0  0  0 
1702990813.360787000  -2.25434  -0.276487  0.882565  0  0  -0.0104496  0.444481  0.304045  -0.165243  0  0  0  0.0004617  1.31848  -0  0  0  0  0  0  0  0  0  0 
1702990813.365743000  -2.25211  -0.274951  0.881739  0  0  -0.0103377  0.444483  0.310654  -0.165243  0  0  0  0.0001062  1.32511  -0  0  0  0  0  0  0  0  0  0 
1702990813.370735000  -2.24989  -0.273381  0.880913  0  0  -0.0102304  0.444483  0.317295  -0.165243  0  0  0  0  1.3315  -0  0  0  0  0  0  0  0  0  0 
1702990813.375749000  -2.24767  -0.271778  0.880087  0  0  -0.010128  0.444483  0.323968  -0.165243  0  0  0  0  1.33763  -0  0  0  0  0  0  0  0  0  0 
1702990813.380747000  -2.24545  -0.270141  0.879261  0  0  -0.0100306  0.444483  0.330671  -0.165243  0  0  0  0  1.34352  -0  0  0  0  0  0  0  0  0  0 
1702990813.385743000  -2.24322  -0.268471  0.878434  0  0  -0.0099383  0.444483  0.337403  -0.165243  0  0  0  0  1.34916  -0  0  0  0  0  0  0  0  0  0 
1702990813.390743000  -2.241  -0.266767  0.877608  0  0  -0.0098513  0.444483  0.344162  -0.165243  0  0  0  0  1.35454  -0  0  0  0  0  0  0  0  0  0 
1702990813.395747000  -2.23878  -0.265029  0.876782  0  0  -0.0097698  0.444483  0.350948  -0.165243  0  0  0  0  1.35968  -0  0  0  0  0  0  0  0  0  0 
1702990813.400778000  -2.23656  -0.263257  0.875956  0  0  -0.0096938  0.444483  0.357759  -0.165243  0  0  0  0  1.36456  -0  0  0  0  0  0  0  0  0  0 
1702990813.405744000  -2.23433  -0.261452  0.87513  0  0  -0.0096235  0.444483  0.364593  -0.165243  0  0  0  0  1.3692  -0  0  0  0  0  0  0  0  0  0 
1702990813.410742000  -2.23211  -0.259611  0.874303  0  0  -0.0095589  0.444483  0.37145  -0.165243  0  0  0  0  1.37358  -0  0  0  0  0  0  0  0  0  0 
1702990813.415750000  -2.22989  -0.257737  0.873477  0  0  -0.0095002  0.444483  0.378329  -0.165243  0  0  0  0  1.37772  -0  0  0  0  0  0  0  0  0  0 
1702990813.420780000  -2.22767  -0.255828  0.872651  0  0  -0.0094474  0.444483  0.385227  -0.165243  0  0  0  0  1.3816  -0  0  0  0  0  0  0  0  0  0 
1702990813.425743000  -2.22544  -0.253885  0.871825  0  0  -0.0094007  0.444483  0.392144  -0.165243  0  0  0  0  1.38524  -0  0  0  0  0  0  0  0  0  0 
1702990813.430737000  -2.22322  -0.251907  0.870998  0  0  -0.00936  0.444483  0.399079  -0.165243  0  0  0  0  1.38863  -0  0  0  0  0  0  0  0  0  0 
1702990813.435745000  -2.221  -0.249894  0.870172  0  0  -0.0093255  0.444483  0.40603  -0.165243  0  0  0  0  1.39176  -0  0  0  0  0  0  0  0  0  0 
1702990813.440766000  -2.21878  -0.247846  0.869346  0  0  -0.0092971  0.444483  0.412996  -0.165243  0  0  0  0  1.39465  -0  0  0  0  0  0  0  0  0  0 
1702990813.445759000  -2.21656  -0.245764  0.86852  0  0  -0.009275  0.444483  0.419976  -0.165243  0  0  0  0  1.39728  -0  0  0  0  0  0  0  0  0  0 
1702990813.450736000  -2.21433  -0.243647  0.867694  0  0  -0.009259  0.444483  0.426969  -0.165243  0  0  0  0  1.39967  -0  0  0  0  0  0  0  0  0  0 
1702990813.455740000  -2.21211  -0.241494  0.866867  0  0  -0.0092494  0.444483  0.433972  -0.165243  0  0  0  0  1.4018  -0  0  0  0  0  0  0  0  0  0 
1702990813.460756000  -2.20989  -0.239307  0.866041  0  0  -0.0092459  0.444483  0.440986  -0.165243  0  0  0  2.44e-05  1.40369  -0  0  0  0  0  0  0  0  0  0 
1702990813.465735000  -2.20767  -0.237084  0.865215  0  0  -0.0092488  0.444484  0.448009  -0.165243  0  0  0  0.00026  1.40532  -0  0  0  0  0  0  0  0  0  0 
1702990813.470736000  -2.20544  -0.234827  0.864389  0  0  -0.0092578  0.444486  0.455039  -0.165243  0  0  0  0.0007455  1.40671  -0  0  0  0  0  0  0  0  0  0 
1702990813.475759000  -2.20322  -0.232534  0.863562  0  0  -0.0092732  0.444491  0.462076  -0.165243  0  0  0  0.0014811  1.40785  -0  0  0  0  0  0  0  0  0  0 
1702990813.480779000  -2.201  -0.230206  0.862736  0  0  -0.0092948  0.444501  0.469117  -0.165243  0  0  0  0.0024666  1.40873  -0  0  0  0  0  0  0  0  0  0 
1702990813.485734000  -2.19878  -0.227843  0.86191  0  0  -0.0093226  0.444516  0.476163  -0.165243  0  0  0  0.0037022  1.40937  -0  0  0  0  0  0  0  0  0  0 
1702990813.490745000  -2.19655  -0.225444  0.861084  0  0  -0.0093567  0.444539  0.48321  -0.165243  0  0  0  0.0051877  1.40975  -0  0  0  0  0  0  0  0  0  0 
1702990813.495735000  -2.19433  -0.223011  0.860258  0  0  -0.009397  0.444569  0.49026  -0.165243  0  0  0  0.0069233  1.40989  -0  0  0  0  0  0  0  0  0  0 
1702990813.500750000  -2.19211  -0.220542  0.859431  0  0  -0.0094436  0.444608  0.497309  -0.165243  0  0  0  0.0089088  1.40977  -0  0  0  0  0  0  0  0  0  0 
1702990813.505736000  -2.18988  -0.218038  0.858605  0  0  -0.0094964  0.444658  0.504357  -0.165243  0  0  0  0.0111443  1.40941  -0  0  0  0  0  0  0  0  0  0 
1702990813.510738000  -2.18766  -0.215498  0.857779  0  0  -0.0095555  0.44472  0.511403  -0.165243  0  0  0  0.0136299  1.40879  -0  0  0  0  0  0  0  0  0  0 
1702990813.515760000  -2.18544  -0.212923  0.856953  0  0  -0.0096208  0.444795  0.518445  -0.165243  0  0  0  0.0163654  1.40793  -0  0  0  0  0  0  0  0  0  0 
1702990813.520742000  -2.18321  -0.210314  0.856127  0  0  -0.0096924  0.444884  0.525481  -0.165243  0  0  0  0.019351  1.40682  -0  0  0  0  0  0  0  0  0  0 
1702990813.525750000  -2.18099  -0.207669  0.8553  0  0  -0.0097702  0.444989  0.532512  -0.165243  0  0  0  0.0225865  1.40545  -0  0  0  0  0  0  0  0  0  0 
1702990813.530735000  -2.17876  -0.204989  0.854474  0  0  -0.0098543  0.44511  0.539536  -0.165243  0  0  0  0.0260721  1.40384  -0  0  0  0  0  0  0  0  0  0 
1702990813.535766000  -2.17654  -0.202273  0.853648  0  0  -0.0099446  0.44525  0.54655  -0.165243  0  0  0  0.0298076  1.40197  -0  0  0  0  0  0  0  0  0  0 
1702990813.540746000  -2.17431  -0.199523  0.852822  0  0  -0.0100412  0.445409  0.553555  -0.165243  0  0  0  0.0337932  1.39986  -0  0  0  0  0  0  0  0  0  0 
1702990813.545741000  -2.17208  -0.196738  0.851995  0  0  -0.010144  0.445588  0.560548  -0.165243  0  0  0  0.0380287  1.39749  -0  0  0  0  0  0  0  0  0  0 
1702990813.550738000  -2.16985  -0.193918  0.851169  0  0  -0.0102531  0.44579  0.567529  -0.165243  0  0  0  0.0425143  1.39488  -0  0  0  0  0  0  0  0  0  0 
1702990813.555769000  -2.16763  -0.191063  0.850343  0  0  -0.0103684  0.446014  0.574497  -0.165243  0  0  0  0.0472498  1.39201  -0  0  0  0  0  0  0  0  0  0 
1702990813.560751000  -2.16539  -0.188173  0.849517  0  0  -0.01049  0.446263  0.581449  -0.165243  0  0  0  0.0522353  1.3889  -0  0  0  0  0  0  0  0  0  0 
1702990813.565768000  -2.16316  -0.185248  0.848691  0  0  -0.0106178  0.446537  0.588385  -0.165243  0  0  0  0.0574709  1.38554  -0  0  0  0  0  0  0  0  0  0 
1702990813.570746000  -2.16093  -0.182289  0.847864  0  0  -0.0107519  0.446838  0.595304  -0.165243  0  0  0  0.0629564  1.38192  -0  0  0  0  0  0  0  0  0  0 
1702990813.575760000  -2.15869  -0.179295  0.847038  0  0  -0.0108922  0.447167  0.602204  -0.165243  0  0  0  0.068692  1.37806  -0  0  0  0  0  0  0  0  0  0 
1702990813.580760000  -2.15646  -0.176267  0.846212  0  0  -0.0110388  0.447525  0.609084  -0.165243  0  0  0  0.0746775  1.37394  -0  0  0  0  0  0  0  0  0  0 
1702990813.585746000  -2.15422  -0.173204  0.845386  0  0  -0.0111916  0.447914  0.615943  -0.165243  0  0  0  0.0809131  1.36958  -0  0  0  0  0  0  0  0  0  0 
1702990813.590737000  -2.15198  -0.170107  0.84456  0  0  -0.0113507  0.448335  0.62278  -0.165243  0  0  0  0.0873986  1.36496  -0  0  0  0  0  0  0  0  0  0 
1702990813.595769000  -2.14974  -0.166977  0.843733  0  0  -0.011516  0.448788  0.629592  -0.165243  0  0  0  0.0941342  1.3601  -0  0  0  0  0  0  0  0  0  0 
1702990813.600738000  -2.14749  -0.163812  0.842907  0  0  -0.0116876  0.449276  0.63638  -0.165243  0  0  0  0.10112  1.35499  -0  0  0  0  0  0  0  0  0  0 
1702990813.605746000  -2.14524  -0.160613  0.842081  0  0  -0.0118655  0.4498  0.643142  -0.165243  0  0  0  0.108355  1.34962  -0  0  0  0  0  0  0  0  0  0 
1702990813.610746000  -2.14299  -0.15738  0.841255  0  0  -0.0120495  0.45036  0.649876  -0.165243  0  0  0  0.115841  1.34401  -0  0  0  0  0  0  0  0  0  0 
1702990813.615756000  -2.14074  -0.154114  0.840428  0  0  -0.0122399  0.450959  0.656581  -0.165243  0  0  0  0.123576  1.33814  -0  0  0  0  0  0  0  0  0  0 
1702990813.620743000  -2.13848  -0.150814  0.839602  0  0  -0.0124364  0.451596  0.663257  -0.165243  0  0  0  0.131562  1.33203  -0  0  0  0  0  0  0  0  0  0 
1702990813.625756000  -2.13622  -0.147482  0.838776  0  0  -0.0126393  0.452275  0.669901  -0.165243  0  0  0  0.139797  1.32566  2.51e-05  0  0  0  0  0  0  0  0  0 
1702990813.630736000  -2.13396  -0.144115  0.83795  0  0  -0.0128483  0.452995  0.676513  -0.165242  0  0  0  0.148283  1.31905  0.0002622  0  0  0  0  0  0  0  0  0 
1702990813.635743000  -2.13169  -0.140716  0.837124  0  0  -0.0130637  0.453758  0.683091  -0.16524  0  0  0  0.157019  1.31218  0.0007492  0  0  0  0  0  0  0  0  0 
1702990813.640778000  -2.12942  -0.137285  0.836297  0  0  -0.0132853  0.454565  0.689635  -0.165235  0  0  0  0.166004  1.30507  0.0014862  0  0  0  0  0  0  0  0  0 
1702990813.645752000  -2.12715  -0.13382  0.835471  0  0  -0.0135131  0.455418  0.696142  -0.165225  0  0  0  0.17524  1.29771  0.0024733  0  0  0  0  0  0  0  0  0 
1702990813.650739000  -2.12487  -0.130323  0.834645  0  0  -0.0137472  0.456318  0.702611  -0.165209  0  0  0  0.184725  1.29009  0.0037103  0  0  0  0  0  0  0  0  0 
1702990813.655760000  -2.12258  -0.126794  0.833819  0  0  -0.0139875  0.457266  0.709042  -0.165187  0  0  0  0.194461  1.28223  0.0051974  0  0  0  0  0  0  0  0  0 
1702990813.660766000  -2.12029  -0.123233  0.832993  0  0  -0.0142341  0.458263  0.715433  -0.165157  0  0  0  0.204446  1.27411  0.0069344  0  0  0  0  0  0  0  0  0 
1702990813.665760000  -2.118  -0.11964  0.832168  0  0  -0.0144869  0.459311  0.721783  -0.165117  0  0  0  0.214682  1.26575  0.0089215  0  0  0  0  0  0  0  0  0 
1702990813.670738000  -2.1157  -0.116015  0.831342  0  0  -0.014746  0.460411  0.72809  -0.165067  0  0  0  0.225167  1.25713  0.0111585  0  0  0  0  0  0  0  0  0 
1702990813.675757000  -2.1134  -0.112359  0.830517  0  0  -0.0150113  0.461563  0.734354  -0.165005  0  0  0  0.235903  1.24827  0.0136455  0  0  0  0  0  0  0  0  0 
1702990813.680762000  -2.11109  -0.108672  0.829692  0  0  -0.0152829  0.46277  0.740572  -0.16493  0  0  0  0.246888  1.23915  0.0163826  0  0  0  0  0  0  0  0  0 
1702990813.685758000  -2.10877  -0.104953  0.828868  0  0  -0.0155607  0.464032  0.746745  -0.164841  0  0  0  0.258124  1.22979  0.0193696  0  0  0  0  0  0  0  0  0 
1702990813.690750000  -2.10645  -0.101204  0.828044  0  0  -0.0158448  0.465352  0.75287  -0.164736  0  0  0  0.26961  1.22018  0.0226067  0  0  0  0  0  0  0  0  0 
1702990813.695766000  -2.10412  -0.0974248  0.82722  0  0  -0.0161351  0.466729  0.758946  -0.164615  0  0  0  0.281345  1.21031  0.0260937  0  0  0  0  0  0  0  0  0 
1702990813.700760000  -2.10178  -0.0936149  0.826398  0  0  -0.0164317  0.468166  0.764973  -0.164475  0  0  0  0.293331  1.2002  0.0298308  0  0  0  0  0  0  0  0  0 
1702990813.705752000  -2.09943  -0.0897751  0.825576  0  0  -0.0167345  0.469663  0.770948  -0.164316  0  0  0  0.305566  1.18983  0.0338178  0  0  0  0  0  0  0  0  0 
1702990813.710736000  -2.09708  -0.0859055  0.824755  0  0  -0.0170436  0.471222  0.776871  -0.164136  0  0  0  0.318052  1.17922  0.0380549  0  0  0  0  0  0  0  0  0 
1702990813.715769000  -2.09472  -0.0820065  0.823934  0  0  -0.0173589  0.472844  0.78274  -0.163935  0  0  0  0.330787  1.16835  0.0425419  0  0  0  0  0  0  0  0  0 
1702990813.720763000  -2.09235  -0.0780782  0.823115  0  0  -0.0176805  0.47453  0.788554  -0.163711  0  0  0  0.343773  1.15724  0.0472789  0  0  0  0  0  0  0  0  0 
1702990813.725768000  -2.08998  -0.0741211  0.822297  0  0  -0.0180083  0.476282  0.794312  -0.163462  0  0  0  0.356855  1.14587  0.052266  0  0  0  0  0  0  0  0  0 
1702990813.730738000  -2.08759  -0.0701352  0.821481  0  0  -0.0183424  0.478098  0.800012  -0.163188  0  0  0  0.369699  1.13426  0.057503  0  0  0  0  0  0  0  0  0 
1702990813.735766000  -2.08519  -0.066121  0.820665  0  0  -0.0186827  0.479978  0.805654  -0.162886  0  0  0  0.382293  1.1224  0.0629901  0  0  0  0  0  0  0  0  0 
1702990813.740767000  -2.08279  -0.0620788  0.819852  0  0  -0.0190293  0.481921  0.811236  -0.162557  0  0  0  0.394637  1.11028  0.0687271  0  0  0  0  0  0  0  0  0 
1702990813.745765000  -2.08038  -0.0580088  0.81904  0  0  -0.0193821  0.483924  0.816756  -0.162199  0  0  0  0.406731  1.09792  0.0747142  0  0  0  0  0  0  0  0  0 
1702990813.750740000  -2.07795  -0.0539113  0.81823  0  0  -0.0197412  0.485987  0.822214  -0.16181  0  0  0  0.418575  1.0853  0.0809512  0  0  0  0  0  0  0  0  0 
1702990813.755740000  -2.07552  -0.0497867  0.817422  0  0  -0.0201065  0.488109  0.827609  -0.161389  0  0  0  0.430169  1.07244  0.0874383  0  0  0  0  0  0  0  0  0 
1702990813.760751000  -2.07307  -0.0456354  0.816616  0  0  -0.0204781  0.490289  0.832938  -0.160935  0  0  0  0.441513  1.05932  0.0941753  0  0  0  0  0  0  0  0  0 
1702990813.765743000  -2.07061  -0.0414575  0.815813  0  0  -0.020856  0.492524  0.838202  -0.160447  0  0  0  0.452607  1.04596  0.101162  0  0  0  0  0  0  0  0  0 
1702990813.770738000  -2.06814  -0.0372534  0.815012  0  0  -0.02124  0.494814  0.843397  -0.159923  0  0  0  0.463451  1.03234  0.108399  0  0  0  0  0  0  0  0  0 
1702990813.775758000  -2.06566  -0.0330236  0.814213  0  0  -0.0216304  0.497158  0.848525  -0.159362  0  0  0  0.474045  1.01848  0.115886  0  0  0  0  0  0  0  0  0 
1702990813.780775000  -2.06317  -0.0287683  0.813418  0  0  -0.0220269  0.499554  0.853582  -0.158764  0  0  0  0.484389  1.00437  0.123623  0  0  0  0  0  0  0  0  0 
1702990813.785757000  -2.06067  -0.0244879  0.812626  0  0  -0.0224298  0.502002  0.858568  -0.158126  0  0  0  0.494483  0.990001  0.131611  0  0  0  0  0  0  0  0  0 
1702990813.790737000  -2.05815  -0.0201828  0.811837  0  0  -0.0228388  0.504499  0.863481  -0.157447  0  0  0  0.504327  0.975387  0.139848  0  0  0  0  0  0  0  0  0 
1702990813.795766000  -2.05562  -0.0158532  0.811051  0  0  -0.0232542  0.507045  0.868321  -0.156727  0  0  0  0.513921  0.960522  0.148335  0  0  0  0  0  0  0  0  0 
1702990813.800746000  -2.05308  -0.0114997  0.81027  0  0  -0.0236758  0.509638  0.873086  -0.155963  0  0  0  0.523265  0.945408  0.157072  0  0  0  0  0  0  0  0  0 
1702990813.805745000  -2.05053  -0.0071225  0.809492  0  0  -0.0241036  0.512277  0.877775  -0.155156  0  0  0  0.532359  0.930044  0.166059  0  0  0  0  0  0  0  0  0 
1702990813.810741000  -2.04796  -0.0027221  0.808718  0  0  -0.0245377  0.514961  0.882386  -0.154302  0  0  0  0.541203  0.914429  0.175296  0  0  0  0  0  0  0  0  0 
1702990813.815769000  -2.04538  0.0017012  0.807949  0  0  -0.024978  0.517688  0.886919  -0.153402  0  0  0  0.549797  0.898565  0.184783  0  0  0  0  0  0  0  0  0 
1702990813.820760000  -2.04278  0.006147  0.807184  0  0  -0.0254246  0.520458  0.891371  -0.152454  0  0  0  0.558142  0.88245  0.19452  0  0  0  0  0  0  0  0  0 
1702990813.825756000  -2.04017  0.0106148  0.806424  0  0  -0.0258774  0.523269  0.895743  -0.151457  0  0  0  0.566236  0.866086  0.204507  0  0  0  0  0  0  0  0  0 
1702990813.830736000  -2.03755  0.0151043  0.80567  0  0  -0.0263365  0.52612  0.900032  -0.150408  0  0  0  0.57408  0.849471  0.214744  0  0  0  0  0  0  0  0  0 
1702990813.835753000  -2.03491  0.019615  0.80492  0  0  -0.0268018  0.52901  0.904237  -0.149309  0  0  0  0.581674  0.832607  0.225231  0  0  0  0  0  0  0  0  0 
1702990813.840754000  -2.03226  0.0241465  0.804177  0  0  -0.0272734  0.531937  0.908358  -0.148156  0  0  0  0.589018  0.815493  0.235968  0  0  0  0  0  0  0  0  0 
1702990813.845748000  -2.02959  0.0286984  0.803439  0  0  -0.0277512  0.5349  0.912392  -0.146949  0  0  0  0.596112  0.798128  0.246955  0  0  0  0  0  0  0  0  0 
1702990813.850736000  -2.02691  0.0332703  0.802707  0  0  -0.0282353  0.537897  0.916338  -0.145686  0  0  0  0.602956  0.780514  0.258192  0  0  0  0  0  0  0  0  0 
1702990813.855751000  -2.02421  0.0378617  0.801982  0  0  -0.0287256  0.540929  0.920196  -0.144366  0  0  0  0.60955  0.762649  0.269679  0  0  0  0  0  0  0  0  0 
1702990813.860737000  -2.0215  0.0424721  0.801264  0  0  -0.0292222  0.543992  0.923964  -0.142989  0  0  0  0.615894  0.744535  0.281416  0  0  0  0  0  0  0  0  0 
1702990813.865747000  -2.01877  0.0471012  0.800552  0  0  -0.029725  0.547087  0.927641  -0.141552  0  0  0  0.621988  0.72617  0.293403  0  0  0  0  0  0  0  0  0 
1702990813.870742000  -2.01603  0.0517484  0.799848  0  0  -0.0302341  0.550212  0.931226  -0.140054  0  0  0  0.627832  0.707556  0.30564  0  0  0  0  0  0  0  0  0 
1702990813.875751000  -2.01327  0.0564133  0.799152  0  0  -0.0307494  0.553365  0.934716  -0.138495  0  0  0  0.633426  0.688692  0.318127  0  0  0  0  0  0  0  0  0 
1702990813.880734000  -2.0105  0.0610954  0.798464  0  0  -0.031271  0.556546  0.938112  -0.136872  0  0  0  0.63877  0.669577  0.330864  0  0  0  0  0  0  0  0  0 
1702990813.885758000  -2.00771  0.0657942  0.797783  0  0  -0.0317988  0.559752  0.941412  -0.135186  0  0  0  0.643864  0.650213  0.343851  0  0  0  0  0  0  0  0  0 
1702990813.890738000  -2.0049  0.0705093  0.797112  0  0  -0.0323329  0.562984  0.944614  -0.133434  0  0  0  0.648708  0.630598  0.356997  0  0  0  0  0  0  0  0  0 
1702990813.895751000  -2.00208  0.0752402  0.796449  0  0  -0.0328732  0.566239  0.947717  -0.131616  0  0  0  0.653302  0.610734  0.369933  0  0  0  0  0  0  0  0  0 
1702990813.900736000  -1.99924  0.0799863  0.795796  0  0  -0.0334198  0.569517  0.950721  -0.129735  0  0  0  0.657646  0.59062  0.382618  0  0  0  0  0  0  0  0  0 
1702990813.905753000  -1.99638  0.0847472  0.795152  0  0  -0.0339726  0.572815  0.953623  -0.12779  0  0  0  0.66174  0.570255  0.395053  0  0  0  0  0  0  0  0  0 
1702990813.910738000  -1.99351  0.0895224  0.794518  0  0  -0.0345317  0.576133  0.956423  -0.125785  0  0  0  0.665584  0.549641  0.407238  0  0  0  0  0  0  0  0  0 
1702990813.915748000  -1.99062  0.0943113  0.793894  0  0  -0.0350971  0.57947  0.959119  -0.123718  0  0  0  0.669178  0.528776  0.419173  0  0  0  0  0  0  0  0  0 
1702990813.920736000  -1.98771  0.0991134  0.793281  0  0  -0.0356686  0.582825  0.96171  -0.121593  0  0  0  0.672522  0.507662  0.430858  0  0  0  0  0  0  0  0  0 
1702990813.925767000  -1.98479  0.103928  0.792678  0  0  -0.0362464  0.586195  0.964195  -0.11941  0  0  0  0.675616  0.486297  0.442294  0  0  0  0  0  0  0  0  0 
1702990813.930736000  -1.98185  0.108755  0.792087  0  0  -0.0368305  0.589581  0.966573  -0.117171  0  0  0  0.67846  0.464683  0.453479  0  0  0  0  0  0  0  0  0 
1702990813.935758000  -1.97889  0.113594  0.791507  0  0  -0.0374209  0.592979  0.968842  -0.114876  0  0  0  0.681054  0.442819  0.464414  0  0  0  0  0  0  0  0  0 
1702990813.940752000  -1.97592  0.118443  0.790938  0  0  -0.0380174  0.596391  0.971001  -0.112527  0  0  0  0.683398  0.420704  0.475099  0  0  0  0  0  0  0  0  0 
1702990813.945751000  -1.97293  0.123304  0.790382  0  0  -0.0386203  0.599813  0.973048  -0.110125  0  0  0  0.685492  0.39834  0.485534  0  0  0  0  0  0  0  0  0 
1702990813.950736000  -1.96992  0.128174  0.789837  0  0  -0.0392293  0.603245  0.974984  -0.107672  0  0  0  0.687336  0.375725  0.49572  0  0  0  0  0  0  0  0  0 
1702990813.955749000  -1.9669  0.133053  0.789305  0  0  -0.0398447  0.606686  0.976805  -0.105169  0  0  0  0.68893  0.352861  0.505655  0  0  0  0  0  0  0  0  0 
1702990813.960761000  -1.96386  0.137942  0.788785  0  0  -0.0404663  0.610134  0.978512  -0.102616  0  0  0  0.690274  0.329746  0.51534  0  0  0  0  0  0  0  0  0 
1702990813.965755000  -1.9608  0.142838  0.788279  0  0  -0.0410941  0.613588  0.980102  -0.100016  0  0  0  0.691368  0.306382  0.524775  0  0  0  0  0  0  0  0  0 
1702990813.970739000  -1.95772  0.147742  0.787785  0  0  -0.0417282  0.617047  0.981575  -0.0973686  0  0  0  0.692212  0.282768  0.53396  0  0  0  0  0  0  0  0  0 
1702990813.975751000  -1.95463  0.152654  0.787305  0  0  -0.0423685  0.62051  0.98293  -0.0946764  0  0  0  0.692806  0.258903  0.542896  0  0  0  0  0  0  0  0  0 
1702990813.980772000  -1.95152  0.157572  0.786839  0  0  -0.0430151  0.623975  0.984164  -0.0919401  0  0  0  0.69315  0.234789  0.551581  0  0  0  0  0  0  0  0  0 
1702990813.985757000  -1.94839  0.162495  0.786386  0  0  -0.0436679  0.627441  0.985277  -0.089161  0  0  0  0.693244  0.210424  0.560016  0  0  0  0  0  0  0  0  0 
1702990813.990736000  -1.94524  0.167424  0.785947  0  0  -0.044327  0.630907  0.986268  -0.0863404  0  0  0  0.693088  0.18581  0.568201  0  0  0  0  0  0  0  0  0 
1702990813.995746000  -1.94208  0.172358  0.785523  0  0  -0.0449923  0.634372  0.987135  -0.0834794  0  0  0  0.692682  0.160945  0.576136  0  0  0  0  0  0  0  0  0 
1702990814.000761000  -1.9389  0.177295  0.785112  0  0  -0.0456639  0.637833  0.987877  -0.0805794  0  0  0  0.692026  0.135946  0.583822  0  0  0  0  0  0  0  0  0 
1702990814.005745000  -1.9357  0.182236  0.784717  0  0  -0.0463417  0.641291  0.988494  -0.0776416  0  0  0  0.69112  0.110946  0.591257  0  0  0  0  0  0  0  0  0 
1702990814.010735000  -1.93248  0.18718  0.784336  0  0  -0.0470258  0.644744  0.988986  -0.0746673  0  0  0  0.689964  0.0859456  0.598442  0  0  0  0  0  0  0  0  0 
1702990814.015760000  -1.92925  0.192126  0.78397  0  0  -0.0477161  0.648191  0.989354  -0.0716576  0  0  0  0.688558  0.0609456  0.605377  0  0  0  0  0  0  0  0  0 
1702990814.020765000  -1.926  0.197073  0.78362  0  0  -0.0484127  0.651629  0.989596  -0.0686139  0  0  0  0.686902  0.0359456  0.612062  0  0  0  0  0  0  0  0  0 
1702990814.025751000  -1.92274  0.202022  0.783284  0  0  -0.0491155  0.655059  0.989713  -0.0655374  0  0  0  0.684996  0.0109456  0.618498  0  0  0  0  0  0  0  0  0 
1702990814.030737000  -1.91945  0.20697  0.782964  0  0  -0.0498246  0.658479  0.989705  -0.0624293  0  0  0  0.682841  -0.0140544  0.624683  0  0  0  0  0  0  0  0  0 
1702990814.035780000  -1.91615  0.211918  0.78266  0  0  -0.0505399  0.661887  0.989573  -0.059291  0  0  0  0.680435  -0.0390544  0.630618  0  0  0  0  0  0  0  0  0 
1702990814.040761000  -1.91283  0.216866  0.782371  0  0  -0.0512615  0.665283  0.989315  -0.0561236  0  0  0  0.677779  -0.0640544  0.636303  0  0  0  0  0  0  0  0  0 
1702990814.045744000  -1.9095  0.221811  0.782099  0  0  -0.0519893  0.668665  0.988932  -0.0529284  0  0  0  0.674873  -0.0890232  0.641738  0  0  0  0  0  0  0  0  0 
1702990814.050736000  -1.90615  0.226755  0.781842  0  0  -0.0527234  0.672031  0.988425  -0.0497066  0  0  0  0.671717  -0.113773  0.646924  0  0  0  0  0  0  0  0  0 
1702990814.055762000  -1.90278  0.231695  0.781602  0  0  -0.0534637  0.675381  0.987795  -0.0464596  0  0  0  0.668311  -0.138274  0.651859  0  0  0  0  0  0  0  0  0 
1702990814.060752000  -1.89939  0.236633  0.781378  0  0  -0.0542103  0.678714  0.987043  -0.0431884  0  0  0  0.664655  -0.162524  0.656544  0  0  0  0  0  0  0  0  0 
1702990814.065735000  -1.89599  0.241566  0.78117  0  0  -0.0549631  0.682027  0.98617  -0.0398945  0  0  0  0.660749  -0.186524  0.660979  0  0  0  0  0  0  0  0  0 
1702990814.070736000  -1.89257  0.246494  0.780979  0  0  -0.0557222  0.685321  0.985178  -0.0365791  0  0  0  0.656593  -0.210274  0.665164  0  0  0  0  0  0  0  0  0 
1702990814.075774000  -1.88914  0.251417  0.780804  0  0  -0.0564875  0.688593  0.984068  -0.0332433  0  0  0  0.652187  -0.233774  0.6691  0  0  0  0  0  0  0  0  0 
1702990814.080757000  -1.88569  0.256335  0.780646  0  0  -0.0572591  0.691842  0.98284  -0.0298885  0  0  0  0.647531  -0.257025  0.672785  0  0  0  0  0  0  0  0  0 
1702990814.085762000  -1.88222  0.261245  0.780505  0  0  -0.058037  0.695068  0.981498  -0.0265159  0  0  0  0.642625  -0.280025  0.67622  0  0  0  0  0  0  0  0  0 
1702990814.090757000  -1.87874  0.266149  0.780381  0  0  -0.058821  0.698268  0.980041  -0.0231267  0  0  0  0.637469  -0.302775  0.679405  0  0  0  0  0  0  0  0  0 
1702990814.095735000  -1.87524  0.271046  0.780274  0  0  -0.0596114  0.701442  0.97847  -0.0197222  0  0  0  0.632063  -0.325275  0.68234  0  0  0  0  0  0  0  0  0 
1702990814.100777000  -1.87172  0.275934  0.780184  0  0  -0.0604079  0.704588  0.976788  -0.0163037  0  0  0  0.626407  -0.347525  0.685026  0  0  0  0  0  0  0  0  0 
1702990814.105739000  -1.86819  0.280813  0.780111  0  0  -0.0612108  0.707706  0.974996  -0.0128724  0  0  0  0.620501  -0.369526  0.687461  0  0  0  0  0  0  0  0  0 
1702990814.110756000  -1.86464  0.285684  0.780055  0  0  -0.0620198  0.710793  0.973093  -0.0094295  0  0  0  0.614345  -0.391276  0.689646  0  0  0  0  0  0  0  0  0 
1702990814.115750000  -1.86108  0.290544  0.780017  0  0  -0.0628352  0.713849  0.971083  -0.0059764  0  0  0  0.607939  -0.412776  0.691581  0  0  0  0  0  0  0  0  0 
1702990814.120745000  -1.85751  0.295394  0.779995  0  0  -0.0636568  0.716872  0.968966  -0.0025141  0  0  0  0.601283  -0.434026  0.693266  0  0  0  0  0  0  0  0  0 
1702990814.125750000  -1.85391  0.300234  0.779992  0  0  -0.0644846  0.719861  0.966743  0.0009559  0  0  0  0.594377  -0.455026  0.694701  0  0  0  0  0  0  0  0  0 
1702990814.130752000  -1.85031  0.305062  0.780005  0  0  -0.0653187  0.722815  0.964416  0.0044325  0  0  0  0.587221  -0.475777  0.695887  0  0  0  0  0  0  0  0  0 
1702990814.135762000  -1.84669  0.309878  0.780036  0  0  -0.066159  0.725733  0.961986  0.0079143  0  0  0  0.579815  -0.496277  0.696822  0  0  0  0  0  0  0  0  0 
1702990814.140744000  -1.84305  0.314681  0.780084  0  0  -0.0670056  0.728613  0.959454  0.0114003  0  0  0  0.572159  -0.516527  0.697507  0  0  0  0  0  0  0  0  0 
1702990814.145745000  -1.8394  0.319472  0.78015  0  0  -0.0678584  0.731454  0.956821  0.014889  0  0  0  0.564253  -0.536527  0.697942  0  0  0  0  0  0  0  0  0 
1702990814.150738000  -1.83574  0.324249  0.780233  0  0  -0.0687175  0.734255  0.954089  0.0183793  0  0  0  0.556097  -0.556277  0.698127  0  0  0  0  0  0  0  0  0 
1702990814.155765000  -1.83206  0.329013  0.780334  0  0  -0.0695828  0.737015  0.951259  0.0218699  0  0  0  0.547691  -0.575778  0.698063  0  0  0  0  0  0  0  0  0 
1702990814.160758000  -1.82837  0.333762  0.780452  0  0  -0.0704544  0.739732  0.948332  0.0253595  0  0  0  0.539035  -0.595028  0.697748  0  0  0  0  0  0  0  0  0 
1702990814.165769000  -1.82466  0.338496  0.780587  0  0  -0.0713322  0.742405  0.945309  0.0288469  0  0  0  0.530129  -0.614028  0.697183  0  0  0  0  0  0  0  0  0 
1702990814.170736000  -1.82094  0.343215  0.78074  0  0  -0.0722163  0.745033  0.942192  0.0323309  0  0  0  0.520973  -0.632778  0.696368  0  0  0  0  0  0  0  0  0 
1702990814.175760000  -1.81721  0.347918  0.780911  0  0  -0.0731066  0.747614  0.938982  0.0358102  0  0  0  0.511567  -0.651278  0.695303  0  0  0  0  0  0  0  0  0 
1702990814.180764000  -1.81347  0.352604  0.781098  0  0  -0.0740032  0.750148  0.935679  0.0392835  0  0  0  0.501911  -0.669529  0.693989  0  0  0  0  0  0  0  0  0 
1702990814.185747000  -1.80971  0.357274  0.781303  0  0  -0.074906  0.752633  0.932287  0.0427496  0  0  0  0.492005  -0.687529  0.692424  0  0  0  0  0  0  0  0  0 
1702990814.190737000  -1.80594  0.361927  0.781526  0  0  -0.0758151  0.755067  0.928805  0.0462073  0  0  0  0.481849  -0.705279  0.690609  0  0  0  0  0  0  0  0  0 
1702990814.195746000  -1.80216  0.366562  0.781765  0  0  -0.0767304  0.757451  0.925234  0.0496553  0  0  0  0.471443  -0.722779  0.688544  0  0  0  0  0  0  0  0  0 
1702990814.200744000  -1.79837  0.371179  0.782022  0  0  -0.077652  0.759781  0.921577  0.0530924  0  0  0  0.460787  -0.740029  0.686229  0  0  0  0  0  0  0  0  0 
1702990814.205745000  -1.79456  0.375778  0.782296  0  0  -0.0785798  0.762058  0.917834  0.0565172  0  0  0  0.449881  -0.757029  0.683665  0  0  0  0  0  0  0  0  0 
1702990814.210735000  -1.79074  0.380357  0.782587  0  0  -0.0795139  0.76428  0.914007  0.0599286  0  0  0  0.438725  -0.77378  0.68085  0  0  0  0  0  0  0  0  0 
1702990814.215744000  -1.78692  0.384918  0.782896  0  0  -0.0804542  0.766445  0.910097  0.0633253  0  0  0  0.427319  -0.79028  0.677785  0  0  0  0  0  0  0  0  0 
1702990814.220769000  -1.78308  0.389458  0.783221  0  0  -0.0814008  0.768553  0.906105  0.066706  0  0  0  0.415663  -0.80653  0.67447  0  0  0  0  0  0  0  0  0 
1702990814.225752000  -1.77923  0.393979  0.783563  0  0  -0.0823536  0.770601  0.902032  0.0700696  0  0  0  0.403757  -0.82253  0.670905  0  0  0  0  0  0  0  0  0 
1702990814.230736000  -1.77537  0.398478  0.783921  0  0  -0.0833127  0.77259  0.89788  0.0734147  0  0  0  0.391601  -0.83828  0.667091  0  0  0  0  0  0  0  0  0 
1702990814.235753000  -1.77151  0.402957  0.784297  0  0  -0.084278  0.774517  0.89365  0.0767401  0  0  0  0.379195  -0.853781  0.663026  0  0  0  0  0  0  0  0  0 
1702990814.240758000  -1.76763  0.407415  0.784689  0  0  -0.0852496  0.776381  0.889343  0.0800445  0  0  0  0.36654  -0.869031  0.658711  0  0  0  0  0  0  0  0  0 
1702990814.245738000  -1.76374  0.411851  0.785097  0  0  -0.0862275  0.778182  0.88496  0.0833267  0  0  0  0.353634  -0.884031  0.654146  0  0  0  0  0  0  0  0  0 
1702990814.250737000  -1.75985  0.416264  0.785522  0  0  -0.0872115  0.779917  0.880503  0.0865855  0  0  0  0.340478  -0.898781  0.649331  0  0  0  0  0  0  0  0  0 
1702990814.255737000  -1.75594  0.420656  0.785963  0  0  -0.0882019  0.781586  0.875973  0.0898196  0  0  0  0.327072  -0.913281  0.644267  0  0  0  0  0  0  0  0  0 
1702990814.260756000  -1.75203  0.425024  0.78642  0  0  -0.0891984  0.783188  0.87137  0.0930278  0  0  0  0.313416  -0.927532  0.638952  0  0  0  0  0  0  0  0  0 
1702990814.265751000  -1.74811  0.429369  0.786893  0  0  -0.0902013  0.78472  0.866698  0.0962087  0  0  0  0.299534  -0.941532  0.633387  0  0  0  0  0  0  0  0  0 
1702990814.270737000  -1.74418  0.433691  0.787382  0  0  -0.0912103  0.786183  0.861955  0.0993612  0  0  0  0.285784  -0.955282  0.627572  0  0  0  0  0  0  0  0  0 
1702990814.275766000  -1.74025  0.437989  0.787887  0  0  -0.0922257  0.787578  0.857145  0.102484  0  0  0  0.272284  -0.968782  0.621507  0  0  0  0  0  0  0  0  0 
1702990814.280767000  -1.73631  0.442262  0.788407  0  0  -0.0932472  0.788906  0.852268  0.105576  0  0  0  0.259034  -0.982032  0.615193  0  0  0  0  0  0  0  0  0 
1702990814.285769000  -1.73236  0.446511  0.788942  0  0  -0.0942751  0.790169  0.847325  0.108636  0  0  0  0.246033  -0.995033  0.608628  0  0  0  0  0  0  0  0  0 
1702990814.290755000  -1.72841  0.450735  0.789493  0  0  -0.0953092  0.791367  0.842318  0.111662  0  0  0  0.233283  -1.00778  0.601813  0  0  0  0  0  0  0  0  0 
1702990814.295756000  -1.72445  0.454934  0.790059  0  0  -0.0963495  0.792502  0.837248  0.114653  0  0  0  0.220783  -1.02028  0.594748  0  0  0  0  0  0  0  0  0 
1702990814.300756000  -1.72048  0.459108  0.79064  0  0  -0.0973961  0.793575  0.832116  0.117609  0  0  0  0.208533  -1.03253  0.587433  0  0  0  0  0  0  0  0  0 
1702990814.305757000  -1.71651  0.463255  0.791235  0  0  -0.0984489  0.794588  0.826923  0.120527  0  0  0  0.196533  -1.04453  0.579869  0  0  0  0  0  0  0  0  0 
1702990814.310750000  -1.71254  0.467377  0.791845  0  0  -0.099508  0.795541  0.821671  0.123407  0  0  0  0.184783  -1.05628  0.572054  0  0  0  0  0  0  0  0  0 
1702990814.315764000  -1.70856  0.471472  0.792469  0  0  -0.100573  0.796436  0.816361  0.126247  0  0  0  0.173283  -1.06778  0.563989  0  0  0  0  0  0  0  0  0 
1702990814.320737000  -1.70457  0.47554  0.793107  0  0  -0.101645  0.797274  0.810993  0.129047  0  0  0  0.162033  -1.07903  0.555674  0  0  0  0  0  0  0  0  0 
1702990814.325745000  -1.70058  0.479582  0.793759  0  0  -0.102723  0.798057  0.805571  0.131804  0  0  0  0.151032  -1.09003  0.547109  0  0  0  0  0  0  0  0  0 
1702990814.330734000  -1.69659  0.483596  0.794425  0  0  -0.103807  0.798785  0.800093  0.134517  0  0  0  0.140282  -1.10078  0.538294  0  0  0  0  0  0  0  0  0 
1702990814.335765000  -1.6926  0.487583  0.795105  0  0  -0.104897  0.79946  0.794563  0.137186  0  0  0  0.129782  -1.11128  0.52923  0  0  0  0  0  0  0  0  0 
1702990814.340745000  -1.6886  0.491541  0.795797  0  0  -0.105994  0.800083  0.788981  0.139809  0  0  0  0.119532  -1.12153  0.519915  0  0  0  0  0  0  0  0  0 
1702990814.345776000  -1.6846  0.495472  0.796503  0  0  -0.107096  0.800656  0.783348  0.142385  0  0  0  0.109532  -1.13153  0.51035  0  0  0  0  0  0  0  0  0 
1702990814.350734000  -1.68059  0.499375  0.797221  0  0  -0.108206  0.801179  0.777666  0.144912  0  0  0  0.0997817  -1.14129  0.500634  0  0  0  0  0  0  0  0  0 
1702990814.355742000  -1.67658  0.503249  0.797952  0  0  -0.109321  0.801654  0.771936  0.147392  0  0  0  0.0902816  -1.15079  0.491134  0  0  0  0  0  0  0  0  0 
1702990814.360762000  -1.67257  0.507094  0.798695  0  0  -0.110442  0.802082  0.766159  0.149824  0  0  0  0.0810315  -1.16004  0.481883  0  0  0  0  0  0  0  0  0 
1702990814.365735000  -1.66856  0.51091  0.79945  0  0  -0.11157  0.802465  0.760336  0.152211  0  0  0  0.0720313  -1.16904  0.472883  0  0  0  0  0  0  0  0  0 
1702990814.370738000  -1.66455  0.514697  0.800217  0  0  -0.112704  0.802803  0.754469  0.154553  0  0  0  0.0632812  -1.17779  0.464132  0  0  0  0  0  0  0  0  0 
1702990814.375762000  -1.66054  0.518455  0.800995  0  0  -0.113845  0.803098  0.748558  0.156853  0  0  0  0.0547811  -1.18629  0.455632  0  0  0  0  0  0  0  0  0 
1702990814.380735000  -1.65652  0.522183  0.801785  0  0  -0.114991  0.803351  0.742606  0.15911  0  0  0  0.0465309  -1.19454  0.447382  0  0  0  0  0  0  0  0  0 
1702990814.385762000  -1.6525  0.525881  0.802586  0  0  -0.116144  0.803564  0.736614  0.161327  0  0  0  0.0385308  -1.20254  0.439381  0  0  0  0  0  0  0  0  0 
1702990814.390755000  -1.64848  0.529549  0.803398  0  0  -0.117303  0.803737  0.730581  0.163504  0  0  0  0.0307807  -1.21029  0.431631  0  0  0  0  0  0  0  0  0 
1702990814.395744000  -1.64446  0.533187  0.804221  0  0  -0.118469  0.803872  0.724511  0.165644  0  0  0  0.0232806  -1.21779  0.42413  0  0  0  0  0  0  0  0  0 
1702990814.400736000  -1.64044  0.536794  0.805055  0  0  -0.11964  0.80397  0.718404  0.167746  0  0  0  0.0160304  -1.22504  0.41688  0  0  0  0  0  0  0  0  0 
1702990814.405749000  -1.63642  0.540371  0.805899  0  0  -0.120818  0.804033  0.712261  0.169813  0  0  0  0.0090303  -1.23204  0.40988  0  0  0  0  0  0  0  0  0 
1702990814.410738000  -1.6324  0.543917  0.806753  0  0  -0.122002  0.804061  0.706084  0.171845  0  0  0  0.0022802  -1.23879  0.403129  0  0  0  0  0  0  0  0  0 
1702990814.415761000  -1.62838  0.547431  0.807617  0  0  -0.123192  0.804056  0.699874  0.173845  0  0  0  -0.00422  -1.24529  0.396629  0  0  0  0  0  0  0  0  0 
1702990814.420736000  -1.62436  0.550915  0.808491  0  0  -0.124389  0.804019  0.693631  0.175812  0  0  0  -0.0104701  -1.25154  0.390378  0  0  0  0  0  0  0  0  0 
1702990814.425774000  -1.62034  0.554368  0.809375  0  0  -0.125592  0.803952  0.687359  0.177749  0  0  0  -0.0164702  -1.25754  0.384378  0  0  0  0  0  0  0  0  0 
1702990814.430739000  -1.61632  0.557789  0.810269  0  0  -0.126801  0.803855  0.681057  0.179656  0  0  0  -0.0222203  -1.26329  0.378628  0  0  0  0  0  0  0  0  0 
1702990814.435759000  -1.61231  0.561178  0.811172  0  0  -0.128016  0.80373  0.674726  0.181535  0  0  0  -0.0277205  -1.26879  0.373127  0  0  0  0  0  0  0  0  0 
1702990814.440747000  -1.60829  0.564536  0.812084  0  0  -0.129238  0.803578  0.668369  0.183388  0  0  0  -0.0329706  -1.27404  0.367877  0  0  0  0  0  0  0  0  0 
1702990814.445771000  -1.60427  0.567862  0.813005  0  0  -0.130466  0.803401  0.661986  0.185215  0  0  0  -0.0379707  -1.27904  0.362876  0  0  0  0  0  0  0  0  0 
1702990814.450736000  -1.60025  0.571156  0.813936  0  0  -0.1317  0.803199  0.655579  0.187017  0  0  0  -0.0427209  -1.28379  0.358126  0  0  0  0  0  0  0  0  0 
1702990814.455758000  -1.59624  0.574418  0.814876  0  0  -0.13294  0.802974  0.649149  0.188796  0  0  0  -0.047221  -1.28829  0.353626  0  0  0  0  0  0  0  0  0 
1702990814.460735000  -1.59222  0.577647  0.815824  0  0  -0.134187  0.802727  0.642697  0.190554  0  0  0  -0.0514711  -1.29254  0.349375  0  0  0  0  0  0  0  0  0 
1702990814.465747000  -1.58821  0.580845  0.816781  0  0  -0.135439  0.80246  0.636224  0.19229  0  0  0  -0.0554713  -1.29654  0.345375  0  0  0  0  0  0  0  0  0 
1702990814.470736000  -1.5842  0.584009  0.817747  0  0  -0.136699  0.802173  0.629732  0.194008  0  0  0  -0.0592214  -1.30029  0.341624  0  0  0  0  0  0  0  0  0 
1702990814.475749000  -1.58019  0.587142  0.818721  0  0  -0.137964  0.801868  0.623221  0.195707  0  0  0  -0.0627215  -1.30379  0.338124  0  0  0  0  0  0  0  0  0 
1702990814.480753000  -1.57618  0.590242  0.819704  0  0  -0.139235  0.801546  0.616694  0.197389  0  0  0  -0.0659716  -1.30704  0.334874  0  0  0  0  0  0  0  0  0 
1702990814.485757000  -1.57217  0.593309  0.820695  0  0  -0.140513  0.801209  0.610151  0.199056  0  0  0  -0.0689718  -1.31004  0.331873  0  0  0  0  0  0  0  0  0 
1702990814.490735000  -1.56817  0.596343  0.821694  0  0  -0.141797  0.800857  0.603594  0.200709  0  0  0  -0.0717219  -1.31279  0.329123  0  0  0  0  0  0  0  0  0 
1702990814.495745000  -1.56416  0.599345  0.822702  0  0  -0.143088  0.800492  0.597024  0.202348  0  0  0  -0.074222  -1.31529  0.326622  0  0  0  0  0  0  0  0  0 
1702990814.500735000  -1.56016  0.602313  0.823718  0  0  -0.144384  0.800115  0.590442  0.203975  0  0  0  -0.0764722  -1.31754  0.324372  0  0  0  0  0  0  0  0  0 
1702990814.505758000  -1.55616  0.605249  0.824742  0  0  -0.145687  0.799727  0.583849  0.205592  0  0  0  -0.0784723  -1.31954  0.322372  0  0  0  0  0  0  0  0  0 
1702990814.510736000  -1.55217  0.608152  0.825774  0  0  -0.146996  0.799331  0.577247  0.207199  0  0  0  -0.0802224  -1.32129  0.320621  0  0  0  0  0  0  0  0  0 
1702990814.515761000  -1.54817  0.611022  0.826814  0  0  -0.148311  0.798926  0.570636  0.208799  0  0  0  -0.0817225  -1.32279  0.319121  0  0  0  0  0  0  0  0  0 
1702990814.520736000  -1.54418  0.613858  0.827862  0  0  -0.149633  0.798514  0.564019  0.210391  0  0  0  -0.0829727  -1.32404  0.31787  0  0  0  0  0  0  0  0  0 
1702990814.525760000  -1.54019  0.616662  0.828918  0  0  -0.150961  0.798096  0.557396  0.211978  0  0  0  -0.0839728  -1.32504  0.31687  0  0  0  0  0  0  0  0  0 
1702990814.530737000  -1.5362  0.619432  0.829982  0  0  -0.152295  0.797674  0.550769  0.21356  0  0  0  -0.0847229  -1.32579  0.31612  0  0  0  0  0  0  0  0  0 
1702990814.535764000  -1.53221  0.622169  0.831053  0  0  -0.153635  0.797249  0.544139  0.215139  0  0  0  -0.0852231  -1.32629  0.315619  0  0  0  0  0  0  0  0  0 
1702990814.540736000  -1.52822  0.624874  0.832133  0  0  -0.154982  0.796823  0.537507  0.216717  0  0  0  -0.0854732  -1.32654  0.315369  0  0  0  0  0  0  0  0  0 
1702990814.545773000  -1.52623  0.62617  0.832718  0  0  -0.155622  0.796611  0.53416  0.217535  0  0  0  -0.0855045  -1.32657  0.315337  0  0  0  0  0  0  0  0  0 
1702990814.550738000  -1.52225  0.628824  0.833809  0  0  -0.156978  0.796183  0.527527  0.219111  0  0  0  -0.0853795  -1.3267  0.315212  0  0  0  0  0  0  0  0  0 
1702990814.555764000  -1.51827  0.631445  0.834909  0  0  -0.15834  0.795757  0.520892  0.220686  0  0  0  -0.0850045  -1.32707  0.314837  0  0  0  0  0  0  0  0  0 
1702990814.560740000  -1.51429  0.634033  0.836016  0  0  -0.159709  0.795334  0.514256  0.222259  0  0  0  -0.0843795  -1.3277  0.314212  0  0  0  0  0  0  0  0  0 
1702990814.565739000  -1.51031  0.636588  0.837131  0  0  -0.161084  0.794914  0.507615  0.223828  0  0  0  -0.0835045  -1.32857  0.313337  0  0  0  0  0  0  0  0  0 
1702990814.570738000  -1.50634  0.639109  0.838254  0  0  -0.162465  0.794499  0.500969  0.225392  0  0  0  -0.0823795  -1.3297  0.312212  0  0  0  0  0  0  0  0  0 
1702990814.575754000  -1.50237  0.641597  0.839385  0  0  -0.163852  0.794091  0.494318  0.22695  0  0  0  -0.0810045  -1.33107  0.310837  0  0  0  0  0  0  0  0  0 
1702990814.580765000  -1.4984  0.644052  0.840524  0  0  -0.165245  0.79369  0.487658  0.2285  0  0  0  -0.0793795  -1.3327  0.309212  0  0  0  0  0  0  0  0  0 
1702990814.585773000  -1.49443  0.646474  0.84167  0  0  -0.166645  0.793297  0.48099  0.230042  0  0  0  -0.0775045  -1.33457  0.307337  0  0  0  0  0  0  0  0  0 
1702990814.590736000  -1.49046  0.648862  0.842824  0  0  -0.168051  0.792915  0.474312  0.231573  0  0  0  -0.0753795  -1.3367  0.305212  0  0  0  0  0  0  0  0  0 
1702990814.595764000  -1.4865  0.651217  0.843986  0  0  -0.169463  0.792544  0.467623  0.233093  0  0  0  -0.0730045  -1.33907  0.302837  0  0  0  0  0  0  0  0  0 
1702990814.600757000  -1.48254  0.653538  0.845155  0  0  -0.170882  0.792185  0.460921  0.234601  0  0  0  -0.0703795  -1.3417  0.300212  0  0  0  0  0  0  0  0  0 
1702990814.605766000  -1.47858  0.655826  0.846332  0  0  -0.172306  0.79184  0.454205  0.236095  0  0  0  -0.0675045  -1.34457  0.297337  0  0  0  0  0  0  0  0  0 
1702990814.610738000  -1.47462  0.65808  0.847516  0  0  -0.173737  0.791511  0.447475  0.237574  0  0  0  -0.0643795  -1.3477  0.294212  0  0  0  0  0  0  0  0  0 
1702990814.615748000  -1.47066  0.660301  0.848708  0  0  -0.175175  0.791197  0.440728  0.239037  0  0  0  -0.0610045  -1.35107  0.290837  0  0  0  0  0  0  0  0  0 
1702990814.620753000  -1.46671  0.662488  0.849906  0  0  -0.176618  0.790901  0.433964  0.240482  0  0  0  -0.0573795  -1.3547  0.287212  0  0  0  0  0  0  0  0  0 
1702990814.625766000  -1.46275  0.66464  0.851112  0  0  -0.178068  0.790624  0.427181  0.241908  0  0  0  -0.0535045  -1.35857  0.283337  0  0  0  0  0  0  0  0  0 
1702990814.630738000  -1.4588  0.666759  0.852326  0  0  -0.179524  0.790366  0.420377  0.243315  0  0  0  -0.0493795  -1.3627  0.279212  0  0  0  0  0  0  0  0  0 
1702990814.635781000  -1.45485  0.668844  0.853546  0  0  -0.180986  0.79013  0.413553  0.2447  0  0  0  -0.0450045  -1.36707  0.274837  0  0  0  0  0  0  0  0  0 
1702990814.640752000  -1.4509  0.670895  0.854773  0  0  -0.182454  0.789917  0.406706  0.246063  0  0  0  -0.0403795  -1.3717  0.270212  0  0  0  0  0  0  0  0  0 
1702990814.645770000  -1.44695  0.672911  0.856006  0  0  -0.183929  0.789727  0.399836  0.247402  0  0  0  -0.0355045  -1.37657  0.265337  0  0  0  0  0  0  0  0  0 
1702990814.650736000  -1.443  0.674893  0.857246  0  0  -0.18541  0.789562  0.39294  0.248716  0  0  0  -0.0303795  -1.3817  0.260212  0  0  0  0  0  0  0  0  0 
1702990814.655753000  -1.43906  0.676841  0.858493  0  0  -0.186897  0.789424  0.386018  0.250003  0  0  0  -0.0250045  -1.38707  0.254837  0  0  0  0  0  0  0  0  0 
1702990814.660745000  -1.43511  0.678753  0.859746  0  0  -0.188391  0.789312  0.379069  0.251264  0  0  0  -0.0196236  -1.3927  0.249212  0  0  0  0  0  0  0  0  0 
1702990814.665754000  -1.43116  0.680631  0.861006  0  0  -0.189891  0.789227  0.372091  0.252495  0  0  0  -0.0144927  -1.39857  0.243337  0  0  0  0  0  0  0  0  0 
1702990814.670737000  -1.42722  0.682474  0.862271  0  0  -0.191396  0.789167  0.365083  0.253697  0  0  0  -0.0096118  -1.4047  0.237212  0  0  0  0  0  0  0  0  0 
1702990814.675737000  -1.42327  0.684282  0.863543  0  0  -0.192909  0.78913  0.358044  0.254867  0  0  0  -0.0049809  -1.41094  0.230837  0  0  0  0  0  0  0  0  0 
1702990814.680736000  -1.41933  0.686055  0.86482  0  0  -0.194427  0.789117  0.350974  0.256005  0  0  0  -0.0006  -1.41694  0.224212  0  0  0  0  0  0  0  0  0 
1702990814.685736000  -1.41538  0.687792  0.866103  0  0  -0.195952  0.789124  0.343875  0.257109  0  0  0  0.003531  -1.4227  0.217337  0  0  0  0  0  0  0  0  0 
1702990814.690740000  -1.41143  0.689493  0.867391  0  0  -0.197483  0.789151  0.336747  0.258178  0  0  0  0.0074119  -1.4282  0.210212  0  0  0  0  0  0  0  0  0 
1702990814.695758000  -1.40749  0.691159  0.868685  0  0  -0.19902  0.789198  0.329593  0.25921  0  0  0  0.0110428  -1.43346  0.202837  0  0  0  0  0  0  0  0  0 
1702990814.700752000  -1.40354  0.692789  0.869983  0  0  -0.200564  0.789261  0.322413  0.260206  0  0  0  0.0144237  -1.43847  0.195212  0  0  0  0  0  0  0  0  0 
1702990814.705766000  -1.3996  0.694383  0.871286  0  0  -0.202113  0.789341  0.315209  0.261162  0  0  0  0.0175546  -1.44322  0.187337  0  0  0  0  0  0  0  0  0 
1702990814.710737000  -1.39565  0.695941  0.872595  0  0  -0.203669  0.789437  0.307981  0.262078  0  0  0  0.0204355  -1.44773  0.179212  0  0  0  0  0  0  0  0  0 
1702990814.715741000  -1.3917  0.697463  0.873907  0  0  -0.205231  0.789545  0.300732  0.262954  0  0  0  0.0230665  -1.45198  0.170837  0  0  0  0  0  0  0  0  0 
1702990814.720736000  -1.38775  0.698948  0.875224  0  0  -0.2068  0.789667  0.293462  0.263786  0  0  0  0.0254474  -1.45599  0.162212  0  0  0  0  0  0  0  0  0 
1702990814.725736000  -1.38381  0.700398  0.876545  0  0  -0.208375  0.789799  0.286172  0.264575  0  0  0  0.0275783  -1.45974  0.153337  0  0  0  0  0  0  0  0  0 
1702990814.730735000  -1.37986  0.70181  0.87787  0  0  -0.209956  0.789942  0.278865  0.265319  0  0  0  0.0294592  -1.46325  0.144212  0  0  0  0  0  0  0  0  0 
1702990814.735755000  -1.37591  0.703186  0.879198  0  0  -0.211543  0.790094  0.27154  0.266017  0  0  0  0.0310901  -1.46651  0.134837  0  0  0  0  0  0  0  0  0 
1702990814.740736000  -1.37195  0.704526  0.88053  0  0  -0.213136  0.790253  0.2642  0.266667  0  0  0  0.032471  -1.46951  0.125212  0  0  0  0  0  0  0  0  0 
1702990814.745736000  -1.368  0.705828  0.881865  0  0  -0.214736  0.790418  0.256846  0.267269  0  0  0  0.0336019  -1.47227  0.115337  0  0  0  0  0  0  0  0  0 
1702990814.750735000  -1.36405  0.707094  0.883202  0  0  -0.216342  0.790588  0.249478  0.26782  0  0  0  0.0344829  -1.47477  0.105212  0  0  0  0  0  0  0  0  0 
1702990814.755765000  -1.3601  0.708323  0.884543  0  0  -0.217954  0.790762  0.242098  0.268321  0  0  0  0.0351138  -1.47703  0.0948373  0  0  0  0  0  0  0  0  0 
1702990814.760735000  -1.35614  0.709515  0.885886  0  0  -0.219573  0.790939  0.234708  0.268768  0  0  0  0.0354947  -1.47903  0.0842431  0  0  0  0  0  0  0  0  0 
1702990814.765749000  -1.35219  0.71067  0.88723  0  0  -0.221197  0.791117  0.227308  0.269163  0  0  0  0.0356256  -1.48079  0.0737935  0  0  0  0  0  0  0  0  0 
1702990814.770737000  -1.34823  0.711788  0.888577  0  0  -0.222828  0.791295  0.219901  0.269507  0  0  0  0.0355065  -1.48229  0.063594  0  0  0  0  0  0  0  0  0 
1702990814.775748000  -1.34427  0.712869  0.889925  0  0  -0.224466  0.791472  0.212486  0.2698  0  0  0  0.0351374  -1.48355  0.0536444  0  0  0  0  0  0  0  0  0 
1702990814.780737000  -1.34032  0.713913  0.891275  0  0  -0.226109  0.791646  0.205066  0.270043  0  0  0  0.0345184  -1.48456  0.0439448  0  0  0  0  0  0  0  0  0 
1702990814.785768000  -1.33636  0.71492  0.892626  0  0  -0.227759  0.791816  0.197641  0.270239  0  0  0  0.0336493  -1.48531  0.0344952  0  0  0  0  0  0  0  0  0 
1702990814.790736000  -1.3324  0.715889  0.893977  0  0  -0.229415  0.791982  0.190213  0.270389  0  0  0  0.0325302  -1.48582  0.0252956  0  0  0  0  0  0  0  0  0 
1702990814.795747000  -1.32844  0.716822  0.89533  0  0  -0.231077  0.792141  0.182783  0.270493  0  0  0  0.0311611  -1.48607  0.016346  0  0  0  0  0  0  0  0  0 
1702990814.800735000  -1.32448  0.717717  0.896682  0  0  -0.232745  0.792293  0.175353  0.270553  0  0  0  0.029542  -1.48608  0.0076465  0  0  0  0  0  0  0  0  0 
1702990814.805737000  -1.32052  0.718575  0.898035  0  0  -0.23442  0.792436  0.167923  0.27057  0  0  0  0.0276729  -1.48583  -0.0008031  0  0  0  0  0  0  0  0  0 
1702990814.810735000  -1.31655  0.719396  0.899388  0  0  -0.236101  0.792569  0.160495  0.270545  0  0  0  0.0255539  -1.48534  -0.0090027  0  0  0  0  0  0  0  0  0 
1702990814.815756000  -1.31259  0.72018  0.90074  0  0  -0.237788  0.792691  0.15307  0.27048  0  0  0  0.0231848  -1.4846  -0.0169523  0  0  0  0  0  0  0  0  0 
1702990814.820735000  -1.30863  0.720927  0.902093  0  0  -0.239482  0.792801  0.145649  0.270376  0  0  0  0.0205657  -1.4836  -0.0246519  0  0  0  0  0  0  0  0  0 
1702990814.825756000  -1.30466  0.721637  0.903444  0  0  -0.241182  0.792897  0.138234  0.270234  0  0  0  0.017697  -1.48236  -0.0321014  0  0  0  0  0  0  0  0  0 
1702990814.830738000  -1.3007  0.722309  0.904795  0  0  -0.242887  0.792978  0.130826  0.270055  0  0  0  0.0148473  -1.48086  -0.039301  0  0  0  0  0  0  0  0  0 
1702990814.835746000  -1.29673  0.722945  0.906145  0  0  -0.2446  0.793045  0.123426  0.269841  0  0  0  0.0122477  -1.47912  -0.0462506  0  0  0  0  0  0  0  0  0 
1702990814.840749000  -1.29277  0.723544  0.907493  0  0  -0.246318  0.793101  0.116035  0.269593  0  0  0  0.0098981  -1.47712  -0.0529502  0  0  0  0  0  0  0  0  0 
1702990814.845749000  -1.2888  0.724105  0.90884  0  0  -0.248043  0.793145  0.108655  0.269312  0  0  0  0.0077984  -1.47488  -0.0593998  0  0  0  0  0  0  0  0  0 
1702990814.850734000  -1.28484  0.72463  0.910186  0  0  -0.249774  0.793179  0.101287  0.269  0  0  0  0.0059488  -1.47238  -0.0655994  0  0  0  0  0  0  0  0  0 
1702990814.855752000  -1.28087  0.725118  0.91153  0  0  -0.251511  0.793205  0.0939316  0.268657  0  0  0  0.0043491  -1.46964  -0.0715489  0  0  0  0  0  0  0  0  0 
1702990814.860735000  -1.2769  0.72557  0.912873  0  0  -0.253255  0.793223  0.0865908  0.268285  0  0  0  0.0029995  -1.46665  -0.0772485  0  0  0  0  0  0  0  0  0 
1702990814.865762000  -1.27294  0.725984  0.914213  0  0  -0.255004  0.793235  0.0792656  0.267885  0  0  0  0.0018999  -1.4634  -0.0826981  0  0  0  0  0  0  0  0  0 
1702990814.870735000  -1.26897  0.726362  0.915552  0  0  -0.25676  0.793242  0.0719572  0.267458  0  0  0  0.0010502  -1.45991  -0.0878977  0  0  0  0  0  0  0  0  0 
1702990814.875750000  -1.265  0.726704  0.916888  0  0  -0.258522  0.793246  0.0646669  0.267006  0  0  0  0.0004506  -1.45616  -0.0928473  0  0  0  0  0  0  0  0  0 
1702990814.880749000  -1.26104  0.727009  0.918222  0  0  -0.260291  0.793247  0.057396  0.26653  0  0  0  0.0001009  -1.45217  -0.0975468  0  0  0  0  0  0  0  0  0 
1702990814.885756000  -1.25707  0.727278  0.919553  0  0  -0.262066  0.793248  0.0501457  0.266031  0  0  0  -0  -1.44792  -0.101996  0  0  0  0  0  0  0  0  0 
1702990814.890737000  -1.25311  0.72751  0.920882  0  0  -0.263847  0.793248  0.0429172  0.26551  0  0  0  -0  -1.44343  -0.106196  0  0  0  0  0  0  0  0  0 
1702990814.895762000  -1.24914  0.727707  0.922208  0  0  -0.265634  0.793248  0.0357118  0.26497  0  0  0  -0  -1.43869  -0.110146  0  0  0  0  0  0  0  0  0 
1702990814.900736000  -1.24517  0.727868  0.923532  0  0  -0.267427  0.793248  0.0285307  0.264409  0  0  0  -0  -1.43369  -0.113845  0  0  0  0  0  0  0  0  0 
1702990814.905749000  -1.24121  0.727992  0.924852  0  0  -0.269227  0.793248  0.0213753  0.263832  0  0  0  -0  -1.42845  -0.117295  0  0  0  0  0  0  0  0  0 
1702990814.910747000  -1.23724  0.728081  0.92617  0  0  -0.271033  0.793248  0.0142467  0.263237  0  0  0  -0  -1.42295  -0.120494  0  0  0  0  0  0  0  0  0 
1702990814.915765000  -1.23327  0.728135  0.927485  0  0  -0.272845  0.793248  0.0071462  0.262627  0  0  0  -0  -1.41721  -0.123444  0  0  0  0  0  0  0  0  0 
1702990814.920735000  -1.22931  0.728153  0.928796  0  0  -0.274664  0.793248  7.5e-05  0.262003  0  0  0  -0  -1.41121  -0.126144  0  0  0  0  0  0  0  0  0 
1702990814.925761000  -1.22534  0.728136  0.930105  0  0  -0.276488  0.793248  -0.0069655  0.261366  0  0  0  -0  -1.40497  -0.128593  0  0  0  0  0  0  0  0  0 
1702990814.930736000  -1.22138  0.728083  0.93141  0  0  -0.278319  0.793248  -0.0139742  0.260717  0  0  0  -0  -1.39847  -0.130793  0  0  0  0  0  0  0  0  0 
1702990814.935760000  -1.21741  0.727996  0.932712  0  0  -0.280157  0.793248  -0.0209499  0.260058  0  0  0  -0  -1.39173  -0.132742  0  0  0  0  0  0  0  0  0 
1702990814.940736000  -1.21344  0.727874  0.93401  0  0  -0.282  0.793248  -0.0278911  0.25939  0  0  0  -0  -1.38474  -0.134442  0  0  0  0  0  0  0  0  0 
1702990814.945747000  -1.20948  0.727717  0.935306  0  0  -0.28385  0.793248  -0.0347968  0.258714  0  0  0  -0  -1.37749  -0.135891  0  0  0  0  0  0  0  0  0 
1702990814.950738000  -1.20551  0.727526  0.936597  0  0  -0.285706  0.793248  -0.0416656  0.258032  0  0  0  -0  -1.37  -0.137091  0  0  0  0  0  0  0  0  0 
1702990814.955767000  -1.20155  0.727301  0.937886  0  0  -0.287568  0.793248  -0.0484964  0.257344  0  0  0  -0  -1.36225  -0.138041  0  0  0  0  0  0  0  0  0 
1702990814.960738000  -1.19758  0.727041  0.939171  0  0  -0.289436  0.793248  -0.0552877  0.256652  0  0  0  -0  -1.35426  -0.13874  0  0  0  0  0  0  0  0  0 
1702990814.965760000  -1.19361  0.726748  0.940452  0  0  -0.291311  0.793248  -0.0620385  0.255957  0  0  0  -0  -1.34601  -0.13919  0  0  0  0  0  0  0  0  0 
1702990814.970738000  -1.18965  0.726421  0.94173  0  0  -0.293192  0.793248  -0.0687475  0.25526  0  0  0  -0  -1.33752  -0.139389  0  0  0  0  0  0  0  0  0 
1702990814.975761000  -1.18568  0.72606  0.943005  0  0  -0.295079  0.793248  -0.0754133  0.254563  0  0  0  -0  -1.32878  -0.139339  0  0  0  0  0  0  0  0  0 
1702990814.980735000  -1.18171  0.725667  0.944276  0  0  -0.296973  0.793248  -0.0820348  0.253867  0  0  0  -0  -1.31978  -0.139038  0  0  0  0  0  0  0  0  0 
1702990814.985736000  -1.17775  0.72524  0.945544  0  0  -0.298872  0.793248  -0.0886107  0.253174  0  0  0  -0  -1.31054  -0.138488  0  0  0  0  0  0  0  0  0 
1702990814.990736000  -1.17378  0.724781  0.946808  0  0  -0.300778  0.793248  -0.0951398  0.252483  0  0  0  -0  -1.30104  -0.137688  0  0  0  0  0  0  0  0  0 
1702990814.995736000  -1.16982  0.724289  0.948069  0  0  -0.302691  0.793248  -0.101621  0.251797  0  0  0  -0  -1.2913  -0.136637  0  0  0  0  0  0  0  0  0 
1702990815.000737000  -1.16585  0.723765  0.949326  0  0  -0.304609  0.793248  -0.108052  0.251117  0  0  0  -0  -1.2813  -0.135337  0  0  0  0  0  0  0  0  0 
1702990815.005746000  -1.16188  0.723208  0.95058  0  0  -0.306533  0.793248  -0.114433  0.250444  0  0  0  -0  -1.27106  -0.133786  0  0  0  0  0  0  0  0  0 
1702990815.010737000  -1.15792  0.72262  0.95183  0  0  -0.308464  0.793248  -0.120762  0.24978  0  0  0  -0  -1.26056  -0.131986  0  0  0  0  0  0  0  0  0 
1702990815.015769000  -1.15395  0.722001  0.953077  0  0  -0.3104  0.793248  -0.127039  0.249125  0  0  0  -0  -1.24982  -0.129936  0  0  0  0  0  0  0  0  0 
1702990815.020736000  -1.14998  0.72135  0.954322  0  0  -0.312342  0.793248  -0.13326  0.248481  0  0  0  -0  -1.23883  -0.127635  0  0  0  0  0  0  0  0  0 
1702990815.025755000  -1.14602  0.720668  0.955562  0  0  -0.314291  0.793248  -0.139426  0.247849  0  0  0  -0  -1.22758  -0.125085  0  0  0  0  0  0  0  0  0 
1702990815.030736000  -1.14205  0.719956  0.9568  0  0  -0.316244  0.793248  -0.145536  0.24723  0  0  0  -0  -1.21609  -0.122284  0  0  0  0  0  0  0  0  0 
1702990815.035761000  -1.13809  0.719213  0.958035  0  0  -0.318204  0.793248  -0.151587  0.246626  0  0  0  -0  -1.20434  -0.119234  0  0  0  0  0  0  0  0  0 
1702990815.040736000  -1.13412  0.71844  0.959266  0  0  -0.320169  0.793248  -0.157579  0.246038  0  0  0  -0  -1.19235  -0.115933  0  0  0  0  0  0  0  0  0 
1702990815.045813000  -1.13015  0.717637  0.960495  0  0  -0.322139  0.793248  -0.16351  0.245467  0  0  0  -0  -1.1801  -0.112383  0  0  0  0  0  0  0  0  0 
1702990815.050737000  -1.12619  0.716805  0.961721  0  0  -0.324115  0.793248  -0.169379  0.244915  0  0  0  -0  -1.16761  -0.108583  0  0  0  0  0  0  0  0  0 
1702990815.055766000  -1.12222  0.715944  0.962944  0  0  -0.326095  0.793248  -0.175186  0.244382  0  0  0  -0  -1.15487  -0.104532  0  0  0  0  0  0  0  0  0 
1702990815.060735000  -1.11825  0.715053  0.964165  0  0  -0.328081  0.793248  -0.180928  0.24387  0  0  0  -0  -1.14187  -0.100232  0  0  0  0  0  0  0  0  0 
1702990815.065761000  -1.11429  0.714134  0.965383  0  0  -0.330071  0.793248  -0.186604  0.24338  0  0  0  -0  -1.12863  -0.0956814  0  0  0  0  0  0  0  0  0 
1702990815.070736000  -1.11032  0.713187  0.966599  0  0  -0.332066  0.793248  -0.192213  0.242914  0  0  0  -0  -1.11513  -0.090881  0  0  0  0  0  0  0  0  0 
1702990815.075761000  -1.10636  0.712212  0.967812  0  0  -0.334065  0.793248  -0.197755  0.242472  0  0  0  -0  -1.10139  -0.0858305  0  0  0  0  0  0  0  0  0 
1702990815.080735000  -1.10239  0.71121  0.969023  0  0  -0.336069  0.793248  -0.203227  0.242056  0  0  0  -0  -1.08739  -0.0805301  0  0  0  0  0  0  0  0  0 
1702990815.085751000  -1.09842  0.71018  0.970233  0  0  -0.338076  0.793248  -0.208628  0.241667  0  0  0  -0  -1.07315  -0.0749797  0  0  0  0  0  0  0  0  0 
1702990815.090757000  -1.09446  0.709124  0.97144  0  0  -0.340087  0.793248  -0.213958  0.241306  0  0  0  -0  -1.05866  -0.0691812  0  0  0  0  0  0  0  0  0 
1702990815.095751000  -1.09049  0.708041  0.972646  0  0  -0.342102  0.793248  -0.219214  0.240975  0  0  0  -0  -1.04391  -0.0634248  0  0  0  0  0  0  0  0  0 
1702990815.100757000  -1.08652  0.706932  0.97385  0  0  -0.34412  0.793248  -0.224397  0.240672  0  0  0  -0  -1.02892  -0.0579185  0  0  0  0  0  0  0  0  0 
1702990815.105766000  -1.08256  0.705797  0.975053  0  0  -0.346141  0.793248  -0.229503  0.240395  0  0  0  -0  -1.01367  -0.0526621  0  0  0  0  0  0  0  0  0 
1702990815.110749000  -1.07859  0.704637  0.976254  0  0  -0.348165  0.793248  -0.234533  0.240145  0  0  0  -0  -0.998178  -0.0476557  0  0  0  0  0  0  0  0  0 
1702990815.115768000  -1.07463  0.703452  0.977454  0  0  -0.350191  0.793248  -0.239485  0.239918  0  0  0  -0  -0.982433  -0.0428993  0  0  0  0  0  0  0  0  0 
1702990815.120737000  -1.07066  0.702242  0.978653  0  0  -0.35222  0.793248  -0.244357  0.239715  0  0  0  -0  -0.966439  -0.0383929  0  0  0  0  0  0  0  0  0 
1702990815.125756000  -1.06669  0.701008  0.979851  0  0  -0.354251  0.793248  -0.249149  0.239534  0  0  0  -0  -0.950195  -0.0341366  0  0  0  0  0  0  0  0  0 
1702990815.130739000  -1.06273  0.699751  0.981049  0  0  -0.356284  0.793248  -0.253858  0.239373  0  0  0  -0  -0.9337  -0.0301302  0  0  0  0  0  0  0  0  0 
1702990815.135768000  -1.05876  0.69847  0.982245  0  0  -0.358318  0.793248  -0.258485  0.239232  0  0  0  -0  -0.916956  -0.0263738  0  0  0  0  0  0  0  0  0 
1702990815.140736000  -1.05479  0.697166  0.983441  0  0  -0.360355  0.793248  -0.263028  0.239109  0  0  0  -0  -0.899961  -0.0228674  0  0  0  0  0  0  0  0  0 
1702990815.145770000  -1.05083  0.69584  0.984636  0  0  -0.362392  0.793248  -0.267484  0.239003  0  0  0  -0  -0.882717  -0.0196111  0  0  0  0  0  0  0  0  0 
1702990815.150736000  -1.04686  0.694491  0.985831  0  0  -0.364431  0.793248  -0.271854  0.238913  0  0  0  -0  -0.865223  -0.0166047  0  0  0  0  0  0  0  0  0 
1702990815.155759000  -1.0429  0.693121  0.987025  0  0  -0.366471  0.793248  -0.276136  0.238837  0  0  0  -0  -0.847478  -0.0138483  0  0  0  0  0  0  0  0  0 
1702990815.160738000  -1.03893  0.69173  0.988219  0  0  -0.368512  0.793248  -0.280329  0.238774  0  0  0  -0  -0.829484  -0.0113419  0  0  0  0  0  0  0  0  0 
1702990815.165748000  -1.03496  0.690318  0.989413  0  0  -0.370553  0.793248  -0.284431  0.238723  0  0  0  -0  -0.81124  -0.0090855  0  0  0  0  0  0  0  0  0 
1702990815.170738000  -1.031  0.688886  0.990607  0  0  -0.372595  0.793248  -0.288441  0.238683  0  0  0  -0  -0.792745  -0.0070792  0  0  0  0  0  0  0  0  0 
1702990815.175765000  -1.02703  0.687434  0.9918  0  0  -0.374638  0.793248  -0.292358  0.238652  0  0  0  -0  -0.774001  -0.0053228  0  0  0  0  0  0  0  0  0 
1702990815.180736000  -1.02306  0.685963  0.992993  0  0  -0.376682  0.793248  -0.29618  0.238629  0  0  0  -0  -0.755006  -0.0038164  0  0  0  0  0  0  0  0  0 
1702990815.185754000  -1.0191  0.684472  0.994186  0  0  -0.378725  0.793248  -0.299907  0.238613  0  0  0  -0  -0.735798  -0.00256  0  0  0  0  0  0  0  0  0 
1702990815.190736000  -1.01513  0.682964  0.995379  0  0  -0.380769  0.793248  -0.303539  0.238603  0  0  0  -0  -0.716742  -0.0015536  0  0  0  0  0  0  0  0  0 
1702990815.195758000  -1.01117  0.681437  0.996572  0  0  -0.382814  0.793248  -0.307075  0.238597  0  0  0  -0  -0.697936  -0.0007973  0  0  0  0  0  0  0  0  0 
1702990815.200749000  -1.0072  0.679893  0.997765  0  0  -0.384858  0.793248  -0.310518  0.238595  0  0  0  -0  -0.679381  -0.0002909  0  0  0  0  0  0  0  0  0 
1702990815.205766000  -1.00323  0.678332  0.998958  0  0  -0.386902  0.793248  -0.313869  0.238594  0  0  0  -0  -0.661075  -3.45e-05  0  0  0  0  0  0  0  0  0 
1702990815.210737000  -0.999267  0.676755  1.00015  0  0  -0.388947  0.793248  -0.317129  0.238594  0  0  0  -0  -0.643019  -0  0  0  0  0  0  0  0  0  0 
1702990815.215764000  -0.995301  0.675161  1.00134  0  0  -0.390992  0.793248  -0.3203  0.238594  0  0  0  -0  -0.625214  -0  0  0  0  0  0  0  0  0  0 
1702990815.220737000  -0.991334  0.673552  1.00254  0  0  -0.393036  0.793248  -0.323382  0.238594  0  0  0  -0  -0.607658  -0  0  0  0  0  0  0  0  0  0 
1702990815.225737000  -0.987368  0.671927  1.00373  0  0  -0.395081  0.793248  -0.326377  0.238594  0  0  0  -0  -0.590352  -0  0  0  0  0  0  0  0  0  0 
1702990815.230738000  -0.983402  0.670288  1.00492  0  0  -0.397126  0.793248  -0.329286  0.238594  0  0  0  -0  -0.573297  -0  0  0  0  0  0  0  0  0  0 
1702990815.235735000  -0.979436  0.668635  1.00612  0  0  -0.39917  0.793248  -0.33211  0.238594  0  0  0  -0  -0.556491  -0  0  0  0  0  0  0  0  0  0 
1702990815.240736000  -0.97547  0.666967  1.00731  0  0  -0.401215  0.793248  -0.334851  0.238594  0  0  0  -0  -0.539935  -0  0  0  0  0  0  0  0  0  0 
1702990815.245742000  -0.971503  0.665286  1.0085  0  0  -0.403259  0.793248  -0.33751  0.238594  0  0  0  -0  -0.523629  -0  0  0  0  0  0  0  0  0  0 
1702990815.250734000  -0.967537  0.663592  1.00969  0  0  -0.405304  0.793248  -0.340088  0.238594  0  0  0  -0  -0.507574  -0  0  0  0  0  0  0  0  0  0 
1702990815.255763000  -0.963571  0.661885  1.01089  0  0  -0.407348  0.793248  -0.342586  0.238594  0  0  0  -0  -0.491768  -0  0  0  0  0  0  0  0  0  0 
1702990815.260750000  -0.959605  0.660166  1.01208  0  0  -0.409392  0.793248  -0.345006  0.238594  0  0  0  -0  -0.476212  -0  0  0  0  0  0  0  0  0  0 
1702990815.265742000  -0.955638  0.658435  1.01327  0  0  -0.411436  0.793248  -0.347349  0.238594  0  0  0  -0  -0.460907  -0  0  0  0  0  0  0  0  0  0 
1702990815.270736000  -0.951672  0.656693  1.01447  0  0  -0.413479  0.793248  -0.349616  0.238594  0  0  0  -0  -0.445851  -0  0  0  0  0  0  0  0  0  0 
1702990815.275762000  -0.947706  0.654939  1.01566  0  0  -0.415523  0.793248  -0.351808  0.238594  0  0  0  -0  -0.431045  -0  0  0  0  0  0  0  0  0  0 
1702990815.280737000  -0.94374  0.653175  1.01685  0  0  -0.417565  0.793248  -0.353926  0.238594  0  0  0  -0  -0.41649  -0  0  0  0  0  0  0  0  0  0 
1702990815.285761000  -0.939773  0.6514  1.01805  0  0  -0.419607  0.793248  -0.355973  0.238594  0  0  0  -0  -0.402184  -0  0  0  0  0  0  0  0  0  0 
1702990815.290736000  -0.935807  0.649615  1.01924  0  0  -0.421648  0.793248  -0.357949  0.238594  0  0  0  -0  -0.388128  -0  0  0  0  0  0  0  0  0  0 
1702990815.295761000  -0.931841  0.647821  1.02043  0  0  -0.423688  0.793248  -0.359855  0.238594  0  0  0  -0  -0.374323  -0  0  0  0  0  0  0  0  0  0 
1702990815.300743000  -0.927875  0.646017  1.02162  0  0  -0.425727  0.793248  -0.361692  0.238594  0  0  0  -0  -0.360767  -0  0  0  0  0  0  0  0  0  0 
1702990815.305761000  -0.923908  0.644204  1.02282  0  0  -0.427765  0.793248  -0.363463  0.238594  0  0  0  -0  -0.347461  -0  0  0  0  0  0  0  0  0  0 
1702990815.310737000  -0.919942  0.642383  1.02401  0  0  -0.429802  0.793248  -0.365167  0.238594  0  0  0  -0  -0.334405  -0  0  0  0  0  0  0  0  0  0 
1702990815.315736000  -0.915976  0.640553  1.0252  0  0  -0.431837  0.793248  -0.366807  0.238594  0  0  0  -0  -0.3216  -0  0  0  0  0  0  0  0  0  0 
1702990815.320737000  -0.91201  0.638715  1.0264  0  0  -0.433871  0.793248  -0.368384  0.238594  0  0  0  -0  -0.309044  -0  0  0  0  0  0  0  0  0  0 
1702990815.325773000  -0.908043  0.636869  1.02759  0  0  -0.435903  0.793248  -0.369898  0.238594  0  0  0  -0  -0.296738  -0  0  0  0  0  0  0  0  0  0 
1702990815.330736000  -0.904077  0.635016  1.02878  0  0  -0.437932  0.793248  -0.371352  0.238594  0  0  0  -0  -0.284683  -0  0  0  0  0  0  0  0  0  0 
1702990815.335760000  -0.900111  0.633155  1.02998  0  0  -0.439959  0.793248  -0.372745  0.238594  0  0  0  -0  -0.272877  -0  0  0  0  0  0  0  0  0  0 
1702990815.340734000  -0.896145  0.631288  1.03117  0  0  -0.441984  0.793248  -0.374081  0.238594  0  0  0  -0  -0.261321  -0  0  0  0  0  0  0  0  0  0 
1702990815.345750000  -0.892179  0.629415  1.03236  0  0  -0.444006  0.793248  -0.375359  0.238594  0  0  0  -0  -0.250016  -0  0  0  0  0  0  0  0  0  0 
1702990815.350735000  -0.888212  0.627535  1.03355  0  0  -0.446026  0.793248  -0.376581  0.238594  0  0  0  -0  -0.23896  -0  0  0  0  0  0  0  0  0  0 
1702990815.355735000  -0.884246  0.625649  1.03475  0  0  -0.448042  0.793248  -0.377749  0.238594  0  0  0  -0  -0.228154  -0  0  0  0  0  0  0  0  0  0 
1702990815.360735000  -0.88028  0.623757  1.03594  0  0  -0.450054  0.793248  -0.378863  0.238594  0  0  0  -0  -0.217599  -0  0  0  0  0  0  0  0  0  0 
1702990815.365752000  -0.876314  0.62186  1.03713  0  0  -0.452063  0.793248  -0.379925  0.238594  0  0  0  -0  -0.207293  -0  0  0  0  0  0  0  0  0  0 
1702990815.370736000  -0.872347  0.619958  1.03833  0  0  -0.454068  0.793248  -0.380937  0.238594  0  0  0  -0  -0.197237  -0  0  0  0  0  0  0  0  0  0 
1702990815.375752000  -0.868381  0.618051  1.03952  0  0  -0.456069  0.793248  -0.381898  0.238594  0  0  0  -0  -0.187432  -0  0  0  0  0  0  0  0  0  0 
1702990815.380735000  -0.864415  0.616139  1.04071  0  0  -0.458065  0.793248  -0.382811  0.238594  0  0  0  -0  -0.177876  -0  0  0  0  0  0  0  0  0  0 
1702990815.385760000  -0.860449  0.614223  1.04191  0  0  -0.460057  0.793248  -0.383677  0.238594  0  0  0  -0  -0.16857  -0  0  0  0  0  0  0  0  0  0 
1702990815.390737000  -0.856482  0.612303  1.0431  0  0  -0.462044  0.793248  -0.384498  0.238594  0  0  0  -0  -0.159514  -0  0  0  0  0  0  0  0  0  0 
1702990815.395757000  -0.852516  0.610378  1.04429  0  0  -0.464027  0.793248  -0.385273  0.238594  0  0  0  -0  -0.150709  -0  0  0  0  0  0  0  0  0  0 
1702990815.400734000  -0.84855  0.60845  1.04548  0  0  -0.466004  0.793248  -0.386005  0.238594  0  0  0  -0  -0.142153  -0  0  0  0  0  0  0  0  0  0 
1702990815.405753000  -0.844584  0.606518  1.04668  0  0  -0.467977  0.793248  -0.386695  0.238594  0  0  0  -0  -0.133847  -0  0  0  0  0  0  0  0  0  0 
1702990815.410736000  -0.840617  0.604583  1.04787  0  0  -0.469944  0.793248  -0.387344  0.238594  0  0  0  -0  -0.125792  -0  0  0  0  0  0  0  0  0  0 
1702990815.415751000  -0.836651  0.602645  1.04906  0  0  -0.471905  0.793248  -0.387953  0.238594  0  0  0  -0  -0.117986  -0  0  0  0  0  0  0  0  0  0 
1702990815.420736000  -0.832685  0.600704  1.05026  0  0  -0.473861  0.793248  -0.388524  0.238594  0  0  0  -0  -0.11043  -0  0  0  0  0  0  0  0  0  0 
1702990815.425751000  -0.828719  0.59876  1.05145  0  0  -0.475811  0.793248  -0.389058  0.238594  0  0  0  -0  -0.103125  -0  0  0  0  0  0  0  0  0  0 
1702990815.430738000  -0.824752  0.596813  1.05264  0  0  -0.477756  0.793248  -0.389556  0.238594  0  0  0  -0  -0.0960689  -0  0  0  0  0  0  0  0  0  0 
1702990815.435765000  -0.820786  0.594864  1.05383  0  0  -0.479694  0.793248  -0.390019  0.238594  0  0  0  -0  -0.0892632  -0  0  0  0  0  0  0  0  0  0 
1702990815.440736000  -0.81682  0.592913  1.05503  0  0  -0.481627  0.793248  -0.390449  0.238594  0  0  0  -0  -0.0827075  -0  0  0  0  0  0  0  0  0  0 
1702990815.445763000  -0.812854  0.59096  1.05622  0  0  -0.483554  0.793248  -0.390847  0.238594  0  0  0  -0  -0.0764019  -0  0  0  0  0  0  0  0  0  0 
1702990815.450736000  -0.808888  0.589005  1.05741  0  0  -0.485474  0.793248  -0.391213  0.238594  0  0  0  -0  -0.0703462  -0  0  0  0  0  0  0  0  0  0 
1702990815.455768000  -0.804921  0.587048  1.05861  0  0  -0.487389  0.793248  -0.39155  0.238594  0  0  0  -0  -0.0645405  -0  0  0  0  0  0  0  0  0  0 
1702990815.460736000  -0.800955  0.585089  1.0598  0  0  -0.489297  0.793248  -0.391859  0.238594  0  0  0  -0  -0.0589848  -0  0  0  0  0  0  0  0  0  0 
1702990815.465767000  -0.796989  0.583129  1.06099  0  0  -0.491199  0.793248  -0.392141  0.238594  0  0  0  -0  -0.0536791  -0  0  0  0  0  0  0  0  0  0 
1702990815.470736000  -0.793023  0.581168  1.06219  0  0  -0.493095  0.793248  -0.392396  0.238594  0  0  0  -0  -0.0486234  -0  0  0  0  0  0  0  0  0  0 
1702990815.475753000  -0.789056  0.579205  1.06338  0  0  -0.494984  0.793248  -0.392627  0.238594  0  0  0  -0  -0.0438177  -0  0  0  0  0  0  0  0  0  0 
1702990815.480737000  -0.78509  0.577242  1.06457  0  0  -0.496868  0.793248  -0.392835  0.238594  0  0  0  -0  -0.039262  -0  0  0  0  0  0  0  0  0  0 
1702990815.485757000  -0.781124  0.575277  1.06576  0  0  -0.498745  0.793248  -0.39302  0.238594  0  0  0  -0  -0.0349563  -0  0  0  0  0  0  0  0  0  0 
1702990815.490735000  -0.777158  0.573311  1.06696  0  0  -0.500615  0.793248  -0.393185  0.238594  0  0  0  -0  -0.0309006  -0  0  0  0  0  0  0  0  0  0 
1702990815.495739000  -0.773191  0.571345  1.06815  0  0  -0.50248  0.793248  -0.39333  0.238594  0  0  0  -0  -0.027095  -0  0  0  0  0  0  0  0  0  0 
1702990815.500735000  -0.769225  0.569378  1.06934  0  0  -0.504338  0.793248  -0.393456  0.238594  0  0  0  -0  -0.0235393  -0  0  0  0  0  0  0  0  0  0 
1702990815.505752000  -0.765259  0.567411  1.07054  0  0  -0.50619  0.793248  -0.393566  0.238594  0  0  0  -0  -0.0202336  -0  0  0  0  0  0  0  0  0  0 
1702990815.510737000  -0.761293  0.565442  1.07173  0  0  -0.508036  0.793248  -0.393659  0.238594  0  0  0  -0  -0.0171779  -0  0  0  0  0  0  0  0  0  0 
1702990815.515765000  -0.757326  0.563474  1.07292  0  0  -0.509876  0.793248  -0.393738  0.238594  0  0  0  -0  -0.0143722  -0  0  0  0  0  0  0  0  0  0 
1702990815.520735000  -0.75336  0.561505  1.07412  0  0  -0.511709  0.793248  -0.393803  0.238594  0  0  0  -0  -0.0118165  -0  0  0  0  0  0  0  0  0  0 
1702990815.525740000  -0.749394  0.559536  1.07531  0  0  -0.513536  0.793248  -0.393856  0.238594  0  0  0  -0  -0.0095108  -0  0  0  0  0  0  0  0  0  0 
1702990815.530740000  -0.745428  0.557567  1.0765  0  0  -0.515357  0.793248  -0.393899  0.238594  0  0  0  -0  -0.0074551  -0  0  0  0  0  0  0  0  0  0 
1702990815.535752000  -0.741461  0.555597  1.07769  0  0  -0.517171  0.793248  -0.393931  0.238594  0  0  0  -0  -0.0056494  -0  0  0  0  0  0  0  0  0  0 
1702990815.540759000  -0.737495  0.553627  1.07889  0  0  -0.51898  0.793248  -0.393956  0.238594  0  0  0  -0  -0.0040938  -0  0  0  0  0  0  0  0  0  0 
1702990815.545759000  -0.733529  0.551657  1.08008  0  0  -0.520782  0.793248  -0.393973  0.238594  0  0  0  -0  -0.0027881  -0  0  0  0  0  0  0  0  0  0 
1702990815.550736000  -0.729563  0.549688  1.08127  0  0  -0.522577  0.793248  -0.393984  0.238594  0  0  0  -0  -0.0017324  -0  0  0  0  0  0  0  0  0  0 
1702990815.555762000  -0.725597  0.547718  1.08247  0  0  -0.524367  0.793248  -0.39399  0.238594  0  0  0  -0  -0.0009267  -0  0  0  0  0  0  0  0  0  0 
1702990815.560737000  -0.72163  0.545748  1.08366  0  0  -0.52615  0.793248  -0.393994  0.238594  0  0  0  -0  -0.000371  -0  0  0  0  0  0  0  0  0  0 
1702990815.565752000  -0.717664  0.543778  1.08485  0  0  -0.527927  0.793248  -0.393995  0.238594  0  0  0  -0  -6.53e-05  -0  0  0  0  0  0  0  0  0  0 
1702990815.570739000  -0.713698  0.541808  1.08604  0  0  -0.529698  0.793248  -0.393995  0.238594  0  0  0  -0  -0  -0  0  0  0  0  0  0  0  0  0 
1702990815.575752000  -0.709732  0.539838  1.08724  0  0  -0.531463  0.793248  -0.393995  0.238594  0  0  0  -0  -0  -0  0  0  0  0  0  0  0  0  0 
1702990815.580735000  -0.705765  0.537868  1.08843  0  0  -0.533221  0.793248  -0.393995  0.238594  0  0  0  -0  -0  -0  0  0  0  0  0  0  0  0  0 
1702990815.585746000  -0.701799  0.535898  1.08962  0  0  -0.534973  0.793248  -0.393995  0.238594  0  0  0  -0  -0  -0  0  0  0  0  0  0  0  0  0 
1702990815.590736000  -0.697833  0.533928  1.09082  0  0  -0.536719  0.793248  -0.393995  0.238594  0  0  0  -0  -0  -0  0  0  0  0  0  0  0  0  0 
1702990815.595750000  -0.693867  0.531958  1.09201  0  0  -0.538458  0.793248  -0.393995  0.238594  0  0  0  -0  -0  -0  0  0  0  0  0  0  0  0  0 
1702990815.600752000  -0.6899  0.529988  1.0932  0  0  -0.540192  0.793248  -0.393995  0.238594  0  0  0  -0  -0  -0  0  0  0  0  0  0  0  0  0 
1702990815.605771000  -0.685934  0.528018  1.0944  0  0  -0.541919  0.793248  -0.393995  0.238594  0  0  0  -0  -0  -0  0  0  0  0  0  0  0  0  0 
1702990815.610735000  -0.681968  0.526048  1.09559  0  0  -0.543639  0.793248  -0.393995  0.238594  0  0  0  -0  -0  -0  0  0  0  0  0  0  0  0  0 
1702990815.615768000  -0.678002  0.524078  1.09678  0  0  -0.545354  0.793248  -0.393995  0.238594  0  0  0  -0  -0  -0  0  0  0  0  0  0  0  0  0 
1702990815.620754000  -0.674035  0.522108  1.09797  0  0  -0.547062  0.793248  -0.393995  0.238594  0  0  0  -0  -0  -0  0  0  0  0  0  0  0  0  0 
1702990815.625738000  -0.670069  0.520138  1.09917  0  0  -0.548764  0.793248  -0.393995  0.238594  0  0  0  -0  -0  -0  0  0  0  0  0  0  0  0  0 
1702990815.630736000  -0.666103  0.518168  1.10036  0  0  -0.55046  0.793248  -0.393995  0.238594  0  0  0  -0  -0  -0  0  0  0  0  0  0  0  0  0 
1702990815.635753000  -0.662137  0.516198  1.10155  0  0  -0.55215  0.793248  -0.393995  0.238594  0  0  0  -0  -0  -0  0  0  0  0  0  0  0  0  0 
1702990815.640737000  -0.658171  0.514228  1.10275  0  0  -0.553833  0.793248  -0.393995  0.238594  0  0  0  -0  -0  -0  0  0  0  0  0  0  0  0  0 
1702990815.645749000  -0.654204  0.512258  1.10394  0  0  -0.55551  0.793248  -0.393995  0.238594  0  0  0  -0  -0  -0  0  0  0  0  0  0  0  0  0 
1702990815.650735000  -0.650238  0.510288  1.10513  0  0  -0.557181  0.793248  -0.393995  0.238594  0  0  0  -0  -0  -0  0  0  0  0  0  0  0  0  0 
1702990815.655769000  -0.646272  0.508318  1.10633  0  0  -0.558845  0.793248  -0.393995  0.238594  0  0  0  -0  -0  -0  0  0  0  0  0  0  0  0  0 
1702990815.660761000  -0.642306  0.506348  1.10752  0  0  -0.560504  0.793248  -0.393995  0.238594  0  0  0  -0  -0  -0  0  0  0  0  0  0  0  0  0 
1702990815.665762000  -0.638339  0.504378  1.10871  0  0  -0.562156  0.793248  -0.393995  0.238594  0  0  0  -0  -0  -0  0  0  0  0  0  0  0  0  0 
1702990815.670740000  -0.634373  0.502408  1.1099  0  0  -0.563801  0.793248  -0.393995  0.238594  0  0  0  -0  -0  -0  0  0  0  0  0  0  0  0  0 
1702990815.675753000  -0.630407  0.500438  1.1111  0  0  -0.565441  0.793248  -0.393995  0.238594  0  0  0  -0  -0  -0  0  0  0  0  0  0  0  0  0 
1702990815.680745000  -0.626441  0.498468  1.11229  0  0  -0.567074  0.793248  -0.393995  0.238594  0  0  0  -0  -0  -0  0  0  0  0  0  0  0  0  0 
1702990815.685782000  -0.622474  0.496498  1.11348  0  0  -0.568701  0.793248  -0.393995  0.238594  0  0  0  -0  -0  -0  0  0  0  0  0  0  0  0  0 
1702990815.690761000  -0.618508  0.494528  1.11468  0  0  -0.570322  0.793248  -0.393995  0.238594  0  0  0  -0  -0  -0  0  0  0  0  0  0  0  0  0 
1702990815.695754000  -0.614542  0.492558  1.11587  0  0  -0.571937  0.793248  -0.393995  0.238594  0  0  0  -0  -0  -0  0  0  0  0  0  0  0  0  0 
1702990815.700736000  -0.610576  0.490588  1.11706  0  0  -0.573545  0.793248  -0.393995  0.238594  0  0  0  -0  -0  -0  0  0  0  0  0  0  0  0  0 
1702990815.705735000  -0.606609  0.488618  1.11826  0  0  -0.575147  0.793248  -0.393995  0.238594  0  0  0  -0  -0  -0  0  0  0  0  0  0  0  0  0 
1702990815.710736000  -0.602643  0.486648  1.11945  0  0  -0.576743  0.793248  -0.393995  0.238594  0  0  0  -0  -0  -0  0  0  0  0  0  0  0  0  0 
1702990815.715745000  -0.598677  0.484678  1.12064  0  0  -0.578332  0.793248  -0.393995  0.238594  0  0  0  -0  -0  -0  0  0  0  0  0  0  0  0  0 
1702990815.720737000  -0.594711  0.482708  1.12183  0  0  -0.579916  0.793248  -0.393995  0.238594  0  0  0  -0  -0  -0  0  0  0  0  0  0  0  0  0 
1702990815.725742000  -0.590744  0.480739  1.12303  0  0  -0.581493  0.793248  -0.393995  0.238594  0  0  0  -0  -0  -0  0  0  0  0  0  0  0  0  0 
1702990815.730736000  -0.586778  0.478769  1.12422  0  0  -0.583063  0.793248  -0.393995  0.238594  0  0  0  -0  -0  -0  0  0  0  0  0  0  0  0  0 
1702990815.735774000  -0.582812  0.476799  1.12541  0  0  -0.584628  0.793248  -0.393995  0.238594  0  0  0  -0  -0  -0  0  0  0  0  0  0  0  0  0 
1702990815.740736000  -0.578846  0.474829  1.12661  0  0  -0.586186  0.793248  -0.393995  0.238594  0  0  0  -0  -0  -0  0  0  0  0  0  0  0  0  0 
1702990815.745766000  -0.57488  0.472859  1.1278  0  0  -0.587738  0.793248  -0.393995  0.238594  0  0  0  -0  -0  -0  0  0  0  0  0  0  0  0  0 
1702990815.750737000  -0.570913  0.470889  1.12899  0  0  -0.589284  0.793248  -0.393995  0.238594  0  0  0  -0  -0  -0  0  0  0  0  0  0  0  0  0 
1702990815.755735000  -0.566947  0.468919  1.13018  0  0  -0.590824  0.793248  -0.393995  0.238594  0  0  0  -0  -0  -0  0  0  0  0  0  0  0  0  0 
1702990815.760736000  -0.562981  0.466949  1.13138  0  0  -0.592357  0.793248  -0.393995  0.238594  0  0  0  -0  -0  -0  0  0  0  0  0  0  0  0  0 
1702990815.765762000  -0.559015  0.464979  1.13257  0  0  -0.593884  0.793248  -0.393995  0.238594  0  0  0  -0  -0  -0  0  0  0  0  0  0  0  0  0 
1702990815.770737000  -0.555048  0.463009  1.13376  0  0  -0.595405  0.793248  -0.393995  0.238594  0  0  0  -0  -0  -0  0  0  0  0  0  0  0  0  0 
1702990815.775755000  -0.551082  0.461039  1.13496  0  0  -0.596919  0.793248  -0.393995  0.238594  0  0  0  -0  -0  -0  0  0  0  0  0  0  0  0  0 
1702990815.780754000  -0.547116  0.459069  1.13615  0  0  -0.598428  0.793248  -0.393995  0.238594  0  0  0  -0  -0  -0  0  0  0  0  0  0  0  0  0 
1702990815.785766000  -0.54315  0.457099  1.13734  0  0  -0.59993  0.793248  -0.393995  0.238594  0  0  0  -0  -0  -0  0  0  0  0  0  0  0  0  0 
1702990815.790735000  -0.539183  0.455129  1.13854  0  0  -0.601425  0.793248  -0.393995  0.238594  0  0  0  -0  -0  -0  0  0  0  0  0  0  0  0  0 
1702990815.795758000  -0.535217  0.453159  1.13973  0  0  -0.602915  0.793248  -0.393995  0.238594  0  0  0  -0  -0  -0  0  0  0  0  0  0  0  0  0 
1702990815.800735000  -0.531251  0.451189  1.14092  0  0  -0.604398  0.793248  -0.393995  0.238594  0  0  0  -0  -0  -0  0  0  0  0  0  0  0  0  0 
1702990815.805756000  -0.527285  0.449219  1.14211  0  0  -0.605875  0.793248  -0.393995  0.238594  0  0  0  -0  -0  -0  0  0  0  0  0  0  0  0  0 
1702990815.810737000  -0.523318  0.447249  1.14331  0  0  -0.607346  0.793248  -0.393995  0.238594  0  0  0  -0  -0  -0  0  0  0  0  0  0  0  0  0 
1702990815.815738000  -0.519352  0.445279  1.1445  0  0  -0.608811  0.793248  -0.393995  0.238594  0  0  0  -0  -0  -0  0  0  0  0  0  0  0  0  0 
1702990815.820763000  -0.515386  0.443309  1.14569  0  0  -0.610269  0.793248  -0.393995  0.238594  0  0  0  -0  -0  -0  0  0  0  0  0  0  0  0  0 
1702990815.825754000  -0.51142  0.441339  1.14689  0  0  -0.611721  0.793248  -0.393995  0.238594  0  0  0  -0  -0  -0  0  0  0  0  0  0  0  0  0 
1702990815.830735000  -0.507453  0.439369  1.14808  0  0  -0.613167  0.793248  -0.393995  0.238594  0  0  0  -0  -0  -0  0  0  0  0  0  0  0  0  0 
1702990815.835756000  -0.503487  0.437399  1.14927  0  0  -0.614606  0.793248  -0.393995  0.238594  0  0  0  -0  -0  -0  0  0  0  0  0  0  0  0  0 
1702990815.840736000  -0.499521  0.435429  1.15047  0  0  -0.61604  0.793247  -0.393994  0.238594  0  0  0  -0.000125  0.000125  -0.000125  0  0  0  0  0  0  0  0  0 
1702990815.845745000  -0.495555  0.433459  1.15166  0  0  -0.617467  0.793246  -0.393993  0.238592  0  0  0  -0.0005  0.0005  -0.0005  0  0  0  0  0  0  0  0  0 
1702990815.850735000  -0.491589  0.431489  1.15285  0  0  -0.618887  0.793242  -0.393989  0.238588  0  0  0  -0.001125  0.001125  -0.001125  0  0  0  0  0  0  0  0  0 
1702990815.855749000  -0.487622  0.429519  1.15404  0  0  -0.620302  0.793234  -0.393981  0.23858  0  0  0  -0.002  0.002  -0.002  0  0  0  0  0  0  0  0  0 
1702990815.860768000  -0.483656  0.427549  1.15524  0  0  -0.62171  0.793221  -0.393969  0.238568  0  0  0  -0.003125  0.003125  -0.003125  0  0  0  0  0  0  0  0  0 
1702990815.865755000  -0.47969  0.42558  1.15643  0  0  -0.623112  0.793203  -0.39395  0.238549  0  0  0  -0.0045  0.0045  -0.0045  0  0  0  0  0  0  0  0  0 
1702990815.870742000  -0.475724  0.42361  1.15762  0  0  -0.624508  0.793176  -0.393923  0.238522  0  0  0  -0.006125  0.006125  -0.006125  0  0  0  0  0  0  0  0  0 
1702990815.875757000  -0.471758  0.42164  1.15881  0  0  -0.625898  0.793141  -0.393888  0.238487  0  0  0  -0.008  0.008  -0.008  0  0  0  0  0  0  0  0  0 
1702990815.880754000  -0.467793  0.419671  1.16001  0  0  -0.627281  0.793096  -0.393843  0.238442  0  0  0  -0.010125  0.010125  -0.010125  0  0  0  0  0  0  0  0  0 
1702990815.885737000  -0.463827  0.417702  1.1612  0  0  -0.628658  0.793039  -0.393786  0.238385  0  0  0  -0.0125  0.0125  -0.0125  0  0  0  0  0  0  0  0  0 
1702990815.890742000  -0.459862  0.415733  1.16239  0  0  -0.630029  0.79297  -0.393717  0.238316  0  0  0  -0.015125  0.015125  -0.015125  0  0  0  0  0  0  0  0  0 
1702990815.895765000  -0.455898  0.413765  1.16358  0  0  -0.631393  0.792888  -0.393635  0.238234  0  0  0  -0.018  0.018  -0.018  0  0  0  0  0  0  0  0  0 
1702990815.900754000  -0.451934  0.411797  1.16477  0  0  -0.632752  0.79279  -0.393537  0.238136  0  0  0  -0.021125  0.021125  -0.021125  0  0  0  0  0  0  0  0  0 
1702990815.905758000  -0.44797  0.409829  1.16596  0  0  -0.634104  0.792676  -0.393423  0.238022  0  0  0  -0.0245  0.0245  -0.0245  0  0  0  0  0  0  0  0  0 
1702990815.910735000  -0.444007  0.407863  1.16715  0  0  -0.635449  0.792544  -0.393292  0.237891  0  0  0  -0.028125  0.028125  -0.028125  0  0  0  0  0  0  0  0  0 
1702990815.915756000  -0.440045  0.405897  1.16834  0  0  -0.636789  0.792394  -0.393141  0.23774  0  0  0  -0.032  0.032  -0.032  0  0  0  0  0  0  0  0  0 
