# pom logged on Tue Dec 19 14:00:12 2023
#
# decimation 5
# process model constant_acceleration
# process noise acc 200 m/s³, aacc 50 rad/s²
# magnetic field X 513185 µT, Y -8834.65 µT, Z -858232 µT
#
ts i posp attp velp avelp accp x y z roll pitch yaw vx vy vz wx wy wz ax ay az sx2 sy2 sz2 sr2 sp2 sh2 svx2 svy2 svz2 swx2 swy2 swz2 sax2 say2 saz2
1702990812.237368000 0 1 1 1 1 1 -2.49811 -0.297688 0.977195 -0.001684 6.86154e-05 -0.0128473 0.00708056 0.00331377 0.00517413 -0.0432172 0.0102493 0.0334346 -0.191808 0.295406 0.204063 5.85738e-09 5.85738e-09 5.85529e-09 2.15772e-07 2.15772e-07 2.15804e-07 9.36046e-06 9.36047e-06 9.35181e-06 9.36046e-06 9.36047e-06 9.35181e-06 0.033968 0.033968 0.0339585
1702990812.242363000 0 1 1 1 1 1 -2.49808 -0.297763 0.977203 -0.00167107 -9.70402e-05 -0.0128107 0.0102301 -0.00656782 0.00637498 -0.0370908 0.0139293 0.0340597 0.218922 -0.47039 0.3235 5.85574e-09 5.85574e-09 5.85366e-09 2.15675e-07 2.15675e-07 2.15706e-07 9.35768e-06 9.35769e-06 9.34906e-06 9.35768e-06 9.35769e-06 9.34906e-06 0.0339223 0.0339223 0.0339128
1702990812.247372000 0 1 1 1 1 1 -2.49802 -0.297709 0.977166 -0.00171105 -0.000256802 -0.0125152 0.015988 0.00243313 0.00118078 -0.0395577 0.0174848 0.0539602 0.586173 0.359785 -0.131972 5.8589e-09 5.8589e-09 5.85682e-09 2.15882e-07 2.15882e-07 2.15914e-07 9.36347e-06 9.36348e-06 9.35483e-06 9.36347e-06 9.36348e-06 9.35483e-06 0.0340387 0.0340387 0.0340292
1702990812.252359000 0 1 1 1 1 1 -2.49808 -0.297717 0.977179 -0.00176648 -0.000378653 -0.0126516 0.00589831 0.00121873 0.00298489 -0.0441832 0.0198769 0.0266788 -0.231097 0.0994483 0.00465212 5.85459e-09 5.85459e-09 5.8525e-09 2.15608e-07 2.15608e-07 2.1564e-07 9.35584e-06 9.35584e-06 9.3472e-06 9.35584e-06 9.35584e-06 9.3472e-06 0.0338727 0.0338727 0.0338633
1702990812.257373000 0 1 1 1 1 1 -2.49804 -0.297782 0.97721 -0.00169936 -0.000516652 -0.0125535 0.0117016 -0.00699384 0.00742304 -0.0338674 0.021766 0.0351321 0.374936 -0.478168 0.381226 5.85947e-09 5.85947e-09 5.85739e-09 2.15923e-07 2.15923e-07 2.15955e-07 9.36462e-06 9.36462e-06 9.35599e-06 9.36462e-06 9.36462e-06 9.35599e-06 0.0340553 0.0340553 0.0340458
1702990812.262389000 0 1 1 1 1 1 -2.498 -0.297716 0.977181 -0.00161174 -0.000589406 -0.0122835 0.0146353 0.0035937 0.00338132 -0.0254889 0.0279448 0.050448 0.479184 0.436094 0.055252 5.86492e-09 5.86492e-09 5.86283e-09 2.16272e-07 2.16272e-07 2.16303e-07 9.37436e-06 9.37436e-06 9.36573e-06 9.37436e-06 9.37436e-06 9.36573e-06 0.0342649 0.0342649 0.0342555
1702990812.267376000 0 1 1 1 1 1 -2.49807 -0.297736 0.977172 -0.00161264 -0.000590913 -0.0125384 0.00382278 0.000384376 0.00214879 -0.0307165 0.0371016 0.0148006 -0.358486 0.00589306 -0.0448385 5.86055e-09 5.86055e-09 5.85846e-09 2.15989e-07 2.15989e-07 2.16021e-07 9.36654e-06 9.36654e-06 9.35792e-06 9.36654e-06 9.36654e-06 9.35792e-06 0.0340933 0.0340933 0.0340839
1702990812.272376000 0 1 1 1 1 1 -2.498 -0.297798 0.977193 -0.00148498 -0.000679238 -0.0123572 0.0130727 -0.00718429 0.005275 -0.0233135 0.0367353 0.0358099 0.525218 -0.467079 0.214662 5.86063e-09 5.86063e-09 5.85854e-09 2.15998e-07 2.15998e-07 2.16029e-07 9.36678e-06 9.36678e-06 9.35817e-06 9.36678e-06 9.36678e-06 9.35817e-06 0.0340937 0.0340937 0.0340842
1702990812.277361000 0 1 1 1 1 1 -2.49798 -0.297705 0.977166 -0.00129809 -0.000685725 -0.0122521 0.0138196 0.00682141 0.00173989 -0.0127738 0.0405598 0.0370238 0.411035 0.686585 -0.0609168 5.8555e-09 5.8555e-09 5.85342e-09 2.15665e-07 2.15665e-07 2.15696e-07 9.35756e-06 9.35757e-06 9.34897e-06 9.35756e-06 9.35757e-06 9.34897e-06 0.0338988 0.0338988 0.0338894
1702990812.282380000 0 1 1 1 1 1 -2.49806 -0.297763 0.977173 -0.00132753 -0.000595454 -0.0126821 0.00252286 -0.00211613 0.00297892 -0.0223541 0.0511729 -0.00484135 -0.393915 -0.23064 0.0479828 5.86205e-09 5.86205e-09 5.85996e-09 2.16085e-07 2.16085e-07 2.16116e-07 9.36927e-06 9.36928e-06 9.36068e-06 9.36927e-06 9.36928e-06 9.36068e-06 0.0341479 0.0341479 0.0341385
1702990812.287380000 0 1 1 1 1 1 -2.49796 -0.297808 0.977195 -0.00127658 -0.000605557 -0.0125146 0.0157705 -0.00690696 0.00649656 -0.0245584 0.0523763 0.0244238 0.780739 -0.417016 0.344793 5.86202e-09 5.86202e-09 5.85994e-09 2.16086e-07 2.16086e-07 2.16117e-07 9.36931e-06 9.36931e-06 9.36071e-06 9.36931e-06 9.36931e-06 9.36071e-06 0.0341435 0.0341435 0.0341341
1702990812.292390000 0 1 1 1 1 1 -2.49798 -0.297706 0.977158 -0.00112264 -0.000532879 -0.0126463 0.0107322 0.00778764 0.00183527 -0.0183702 0.0555555 0.00941585 0.168719 0.711998 -0.01936 5.86547e-09 5.86547e-09 5.86339e-09 2.16317e-07 2.16317e-07 2.16348e-07 9.3757e-06 9.37571e-06 9.36712e-06 9.3757e-06 9.37571e-06 9.36712e-06 0.034276 0.034276 0.0342667
1702990812.297361000 0 1 1 1 1 1 -2.49805 -0.297795 0.977154 -0.00109502 -0.000376759 -0.0131875 0.00203159 -0.00536972 0.00174947 -0.0200847 0.0653743 -0.029525 -0.360913 -0.503876 -0.0354253 5.85554e-09 5.85554e-09 5.85347e-09 2.15678e-07 2.15678e-07 2.15709e-07 9.35801e-06 9.35801e-06 9.34943e-06 9.35801e-06 9.35801e-06 9.34943e-06 0.0338968 0.0338968 0.0338874
1702990812.302387000 0 1 1 1 1 1 -2.49794 -0.297793 0.977174 -0.00102621 -0.000304248 -0.0131139 0.0165851 -0.00357607 0.0048872 -0.0195743 0.0678739 0.00182302 0.843622 -0.124991 0.214363 5.86442e-09 5.86442e-09 5.86234e-09 2.16246e-07 2.16246e-07 2.16278e-07 9.37392e-06 9.37393e-06 9.36532e-06 9.37392e-06 9.37393e-06 9.36532e-06 0.0342367 0.0342367 0.0342273
1702990812.307367000 0 1 1 1 1 1 -2.49802 -0.297735 0.977158 -0.000912327 -0.000228512 -0.0135153 0.00459053 0.00455905 0.00381731 -0.0205386 0.0689493 -0.0275542 -0.29789 0.376555 0.175279 5.52905e-09 5.52905e-09 5.52722e-09 1.97397e-07 1.97397e-07 1.97427e-07 8.81491e-06 8.81491e-06 8.80685e-06 8.81491e-06 8.81491e-06 8.80685e-06 0.0254854 0.0254854 0.0254761
1702990812.312397000 0 1 1 1 1 1 -2.49801 -0.297825 0.977153 -0.000846528 -0.000128775 -0.01402 0.00735995 -0.00877478 0.00359947 -0.0205543 0.0668622 -0.0475537 0.180741 -0.747274 0.1459 5.53858e-09 5.53858e-09 5.53673e-09 1.97883e-07 1.97884e-07 1.97914e-07 8.83014e-06 8.83015e-06 8.82205e-06 8.83014e-06 8.83015e-06 8.82205e-06 0.02561 0.02561 0.0256007
1702990812.317372000 0 1 1 1 1 1 -2.49793 -0.297777 0.977149 -0.000721813 0.00014216 -0.0140065 0.0168442 -0.000181128 0.00289707 -0.0128674 0.0807856 -0.0150214 0.851386 0.16642 0.0429454 5.85937e-09 5.85937e-09 5.85729e-09 2.1592e-07 2.1592e-07 2.15952e-07 9.36504e-06 9.36504e-06 9.35642e-06 9.36504e-06 9.36504e-06 9.35642e-06 0.0340422 0.0340422 0.0340327
1702990812.322380000 0 1 1 1 1 1 -2.49801 -0.297747 0.977154 -0.000670488 0.000311993 -0.0144005 0.00449341 0.00383436 0.00390733 -0.0175337 0.0805579 -0.0355496 -0.239383 0.312378 0.140708 5.8621e-09 5.8621e-09 5.86002e-09 2.16093e-07 2.16093e-07 2.16125e-07 9.36986e-06 9.36987e-06 9.36126e-06 9.36986e-06 9.36987e-06 9.36126e-06 0.0341463 0.0341463 0.0341369
1702990812.327382000 0 1 1 1 1 1 -2.49798 -0.297828 0.977155 -0.000527348 0.000435709 -0.0150681 0.0103346 -0.00731144 0.00507093 -0.0142041 0.0813781 -0.0612702 0.45967 -0.529708 0.253915 5.53387e-09 5.53388e-09 5.53203e-09 1.97637e-07 1.97637e-07 1.97668e-07 8.82261e-06 8.82261e-06 8.8145e-06 8.82261e-06 8.82261e-06 8.8145e-06 0.0255475 0.0255475 0.025538
1702990812.332393000 0 1 1 1 1 1 -2.49797 -0.297759 0.977133 -0.000353055 0.000724826 -0.0150869 0.0119351 0.0041321 0.00226812 -0.00789072 0.0932233 -0.0219719 0.42883 0.536743 0.0193374 5.53734e-09 5.53734e-09 5.53549e-09 1.97807e-07 1.97807e-07 1.97837e-07 8.82794e-06 8.82795e-06 8.81984e-06 8.82794e-06 8.82795e-06 8.81984e-06 0.0255981 0.0255982 0.0255888
1702990812.337395000 0 1 1 1 1 1 -2.49802 -0.297788 0.977126 -0.000298876 0.00100686 -0.0155769 0.00287998 -0.0001143 0.00146057 -0.0107059 0.0933973 -0.0496506 -0.305633 0.0114834 -0.0596525 5.86722e-09 5.86722e-09 5.86513e-09 2.16412e-07 2.16412e-07 2.16444e-07 9.37873e-06 9.37873e-06 9.37011e-06 9.37873e-06 9.37873e-06 9.37011e-06 0.0343437 0.0343437 0.0343343
1702990812.342427000 0 1 1 1 1 1 -2.49797 -0.297831 0.977141 -8.92253e-05 0.00119664 -0.0163097 0.0125223 -0.00523601 0.00477974 -0.00508477 0.0947869 -0.0744636 0.629779 -0.272028 0.235067 5.54817e-09 5.54818e-09 5.54632e-09 1.98354e-07 1.98354e-07 1.98385e-07 8.84499e-06 8.84499e-06 8.83686e-06 8.84499e-06 8.84499e-06 8.83686e-06 0.0257453 0.0257453 0.0257359
1702990812.347356000 0 1 1 1 1 1 -2.49797 -0.297776 0.977119 4.43236e-05 0.00158416 -0.0163072 0.0108327 0.00384989 0.00202182 -0.00302766 0.10469 -0.0314979 0.327353 0.475821 0.0356681 5.8539e-09 5.85391e-09 5.85183e-09 2.15553e-07 2.15552e-07 2.15584e-07 9.35471e-06 9.35471e-06 9.34614e-06 9.35471e-06 9.35471e-06 9.34614e-06 0.0338245 0.0338245 0.0338152
1702990812.352410000 0 1 1 1 1 1 -2.49801 -0.297844 0.977092 0.000189782 0.0018588 -0.0170448 0.00521246 -0.00575573 -0.000549222 -0.00553139 0.105841 -0.0769041 -0.021677 -0.430087 -0.177336 5.54266e-09 5.54267e-09 5.54082e-09 1.98072e-07 1.98071e-07 1.98102e-07 8.83607e-06 8.83607e-06 8.82799e-06 8.83607e-06 8.83607e-06 8.82799e-06 0.0256668 0.0256668 0.0256575
1702990812.357322000 0 1 1 1 1 1 -2.49796 -0.297845 0.977121 0.000386134 0.00225046 -0.0176964 0.0128999 -0.00413489 0.0043861 0.00223502 0.112413 -0.0916076 0.607104 -0.142093 0.228175 5.84225e-09 5.84225e-09 5.84018e-09 2.14802e-07 2.14801e-07 2.14834e-07 9.33368e-06 9.33368e-06 9.32512e-06 9.33368e-06 9.33368e-06 9.32512e-06 0.0334124 0.0334124 0.033403
1702990812.362373000 0 1 1 1 1 1 -2.49799 -0.297804 0.977105 0.000588805 0.00266141 -0.0176279 0.00720891 0.00240474 0.00344809 0.00522756 0.119061 -0.0352308 0.0445955 0.320604 0.214449 5.85957e-09 5.85957e-09 5.8575e-09 2.159e-07 2.15899e-07 2.15931e-07 9.36416e-06 9.36416e-06 9.35562e-06 9.36416e-06 9.36416e-06 9.35562e-06 0.0340669 0.0340669 0.0340577
1702990812.367317000 0 1 1 1 1 1 -2.498 -0.297874 0.977059 0.000738629 0.00305026 -0.018371 0.00670506 -0.00665094 -0.00135215 0.00283887 0.120684 -0.0787802 0.116882 -0.434232 -0.180876 5.84053e-09 5.84054e-09 5.83848e-09 2.14687e-07 2.14685e-07 2.14718e-07 9.33013e-06 9.33014e-06 9.32161e-06 9.33013e-06 9.33014e-06 9.32161e-06 0.0333481 0.0333481 0.0333388
1702990812.372317000 0 1 1 1 1 1 -2.49796 -0.297843 0.97706 0.00100592 0.00353077 -0.0190815 0.0125593 -0.000663898 0.000345911 0.00857588 0.131876 -0.0906423 0.530968 0.164083 -0.0501585 5.84056e-09 5.84056e-09 5.8385e-09 2.1469e-07 2.14688e-07 2.14722e-07 9.33012e-06 9.33012e-06 9.32158e-06 9.33012e-06 9.33012e-06 9.32158e-06 0.0333421 0.0333421 0.0333327
1702990812.377370000 0 1 1 1 1 1 -2.49802 -0.29786 0.977052 0.00133106 0.00398797 -0.0190859 0.00480267 -0.00232204 0.00188427 0.0155206 0.138986 -0.0412038 -0.109166 -0.10368 0.145024 5.52987e-09 5.52987e-09 5.52804e-09 1.9741e-07 1.97407e-07 1.9744e-07 8.81493e-06 8.81493e-06 8.8069e-06 8.81493e-06 8.81493e-06 8.8069e-06 0.0255071 0.0255071 0.0254977
1702990812.382439000 0 1 1 1 1 1 -2.49797 -0.297895 0.977035 0.00170693 0.00441599 -0.0201028 0.0117538 -0.0058699 0.00178185 0.0307854 0.133192 -0.107822 0.55772 -0.289241 0.18146 5.55175e-09 5.55175e-09 5.5499e-09 1.98527e-07 1.98523e-07 1.98557e-07 8.84972e-06 8.84972e-06 8.84167e-06 8.84972e-06 8.84972e-06 8.84167e-06 0.0258051 0.0258051 0.0257958
1702990812.387364000 0 1 1 1 1 1 -2.49796 -0.297849 0.976994 0.00192327 0.0051028 -0.0205927 0.011552 0.00231863 -0.00210161 0.0240525 0.152968 -0.0923472 0.390997 0.405265 -0.149551 5.85633e-09 5.85633e-09 5.85427e-09 2.15706e-07 2.15701e-07 2.15738e-07 9.35825e-06 9.35826e-06 9.34973e-06 9.35825e-06 9.35826e-06 9.34973e-06 0.0339294 0.0339294 0.0339201
1702990812.392375000 0 1 1 1 1 1 -2.49801 -0.297898 0.976988 0.00232399 0.00565239 -0.0205914 0.00487883 -0.00369274 -0.000155558 0.0336883 0.155227 -0.0451246 -0.0994257 -0.192183 0.060727 5.86005e-09 5.86005e-09 5.85798e-09 2.15952e-07 2.15945e-07 2.15983e-07 9.36504e-06 9.36505e-06 9.35654e-06 9.36504e-06 9.36505e-06 9.35654e-06 0.0340706 0.0340706 0.0340613
1702990812.397336000 0 1 1 1 1 1 -2.49794 -0.297927 0.976962 0.00284328 0.00616529 -0.0216788 0.0135984 -0.00581362 -0.000720754 0.052592 0.150632 -0.112119 0.636961 -0.228638 0.0432604 5.84678e-09 5.84678e-09 5.84473e-09 2.15108e-07 2.151e-07 2.15139e-07 9.3415e-06 9.34151e-06 9.33302e-06 9.3415e-06 9.34151e-06 9.33302e-06 0.0335729 0.0335729 0.0335636
1702990812.402354000 0 1 1 1 1 1 -2.49797 -0.297881 0.976929 0.00326872 0.00693247 -0.022104 0.00931915 0.00223969 -0.00176706 0.0531332 0.170212 -0.0835658 0.155956 0.380682 0.00871808 5.85286e-09 5.85286e-09 5.85081e-09 2.15498e-07 2.15488e-07 2.15529e-07 9.35238e-06 9.35239e-06 9.34392e-06 9.35238e-06 9.35239e-06 9.34392e-06 0.0338004 0.0338004 0.0337911
1702990812.407371000 0 1 1 1 1 1 -2.49799 -0.29796 0.976893 0.00375036 0.00762984 -0.0222316 0.00638017 -0.00757683 -0.00281466 0.0569614 0.177566 -0.0509498 0.0173388 -0.462739 -0.0206561 5.85863e-09 5.85863e-09 5.85658e-09 2.15871e-07 2.15858e-07 2.15902e-07 9.36272e-06 9.36272e-06 9.35426e-06 9.36272e-06 9.36272e-06 9.35426e-06 0.0340185 0.0340185 0.0340093
1702990812.412360000 0 1 1 1 1 1 -2.49792 -0.29795 0.976853 0.00440843 0.00824563 -0.023396 0.0152752 -0.00352177 -0.00429451 0.0755891 0.173798 -0.118968 0.684158 0.024396 -0.131095 5.85487e-09 5.85487e-09 5.85282e-09 2.15629e-07 2.15614e-07 2.1566e-07 9.35599e-06 9.35599e-06 9.34752e-06 9.35599e-06 9.35599e-06 9.34752e-06 0.0338791 0.0338791 0.0338698
1702990812.417381000 0 1 1 1 1 1 -2.49796 -0.297928 0.976843 0.00497745 0.00906559 -0.0236999 0.00736754 0.00112903 -0.0010341 0.0801062 0.186172 -0.0771802 -0.0582797 0.296863 0.191905 5.86204e-09 5.86204e-09 5.85998e-09 2.16093e-07 2.16075e-07 2.16124e-07 9.3688e-06 9.36881e-06 9.36034e-06 9.3688e-06 9.36881e-06 9.36034e-06 0.0341499 0.0341499 0.0341406
1702990812.422347000 0 1 1 1 1 1 -2.49794 -0.298018 0.976798 0.00554966 0.00984951 -0.0240857 0.0100744 -0.0092945 -0.00230528 0.0825871 0.194656 -0.0719864 0.277938 -0.514205 0.1556 5.8505e-09 5.85051e-09 5.84847e-09 2.15354e-07 2.15334e-07 2.15385e-07 9.34811e-06 9.34812e-06 9.3397e-06 9.34811e-06 9.34812e-06 9.3397e-06 0.0337172 0.0337172 0.0337081
1702990812.427349000 0 1 1 1 1 1 -2.49788 -0.297985 0.976709 0.00628733 0.0105989 -0.0252225 0.0163785 -0.00147865 -0.00950262 0.0963459 0.194058 -0.127457 0.665138 0.247188 -0.426962 5.85121e-09 5.85121e-09 5.84917e-09 2.154e-07 2.15376e-07 2.15431e-07 9.34931e-06 9.34932e-06 9.34087e-06 9.34931e-06 9.34932e-06 9.34087e-06 0.0337415 0.0337415 0.0337322
1702990812.432395000 0 1 1 1 1 1 -2.49793 -0.298006 0.9767 0.00694652 0.0115276 -0.0254053 0.00718576 -0.00252939 -0.00512133 0.100293 0.206348 -0.0739713 -0.122804 0.0350704 -0.0247509 5.8668e-09 5.8668e-09 5.86475e-09 2.16409e-07 2.16381e-07 2.16441e-07 9.37721e-06 9.37722e-06 9.36876e-06 9.37721e-06 9.37722e-06 9.36876e-06 0.0343335 0.0343335 0.0343243
1702990812.437360000 0 1 1 1 1 1 -2.49787 -0.298088 0.976687 0.00762887 0.0124321 -0.0259875 0.0140092 -0.0107639 -0.000605426 0.104082 0.215712 -0.0861655 0.515514 -0.52174 0.444765 5.85492e-09 5.85493e-09 5.85289e-09 2.15651e-07 2.15618e-07 2.15682e-07 9.35595e-06 9.35596e-06 9.34756e-06 9.35595e-06 9.35596e-06 9.34756e-06 0.0338779 0.0338779 0.0338688
1702990812.442379000 0 1 1 1 1 1 -2.49784 -0.298044 0.976578 0.00840158 0.0133593 -0.0269745 0.0155873 -0.000954538 -0.00919008 0.11242 0.22199 -0.119859 0.475453 0.340128 -0.216243 5.8613e-09 5.86131e-09 5.85927e-09 2.16061e-07 2.16023e-07 2.16092e-07 9.36725e-06 9.36726e-06 9.35885e-06 9.36725e-06 9.36726e-06 9.35885e-06 0.0341183 0.0341183 0.0341092
1702990812.447356000 0 1 1 1 1 1 -2.49788 -0.298103 0.97652 0.009136 0.0143592 -0.0271439 0.00796993 -0.00647287 -0.0103296 0.116587 0.230156 -0.0702661 -0.126823 -0.209772 -0.304923 5.85341e-09 5.85342e-09 5.85138e-09 2.15561e-07 2.15516e-07 2.15592e-07 9.3532e-06 9.35321e-06 9.34478e-06 9.3532e-06 9.35321e-06 9.34478e-06 0.0338157 0.0338157 0.0338065
1702990812.452388000 0 1 1 1 1 1 -2.49779 -0.298161 0.976509 0.00989835 0.0153179 -0.0279253 0.017623 -0.0101428 -0.00433678 0.120447 0.232339 -0.100198 0.674909 -0.339772 0.264376 5.86425e-09 5.86425e-09 5.86221e-09 2.16264e-07 2.16214e-07 2.16295e-07 9.37258e-06 9.37259e-06 9.36417e-06 9.37258e-06 9.37259e-06 9.36417e-06 0.0342316 0.0342316 0.0342224
1702990812.457367000 0 1 1 1 1 1 -2.49778 -0.298129 0.976418 0.0106817 0.0163636 -0.028744 0.0153814 -0.00155344 -0.00898301 0.124369 0.240415 -0.113548 0.31894 0.363647 -0.0246911 5.85703e-09 5.85703e-09 5.855e-09 2.15807e-07 2.1575e-07 2.15837e-07 9.35964e-06 9.35965e-06 9.35128e-06 9.35964e-06 9.35965e-06 9.35128e-06 0.0339553 0.0339554 0.0339463
1702990812.462371000 0 1 1 1 1 1 -2.49778 -0.298221 0.976332 0.0113879 0.017468 -0.0290078 0.011705 -0.0103602 -0.0127297 0.121834 0.250175 -0.0774631 0.072461 -0.394046 -0.322164 5.85841e-09 5.85841e-09 5.85638e-09 2.15908e-07 2.15842e-07 2.15939e-07 9.36224e-06 9.36225e-06 9.35385e-06 9.36224e-06 9.36225e-06 9.35385e-06 0.034007 0.034007 0.0339978
1702990812.467426000 0 1 1 1 1 1 -2.49769 -0.298242 0.976271 0.0122057 0.01855 -0.0299474 0.0203152 -0.00759232 -0.0118994 0.125113 0.258384 -0.116044 0.72564 0.0291764 -0.214756 5.54724e-09 5.54724e-09 5.54543e-09 1.98373e-07 1.98304e-07 1.98403e-07 8.84294e-06 8.84295e-06 8.83501e-06 8.84294e-06 8.84295e-06 8.83501e-06 0.0257361 0.0257361 0.0257268
1702990812.472337000 0 1 1 1 1 1 -2.49768 -0.298256 0.976217 0.0129137 0.0197198 -0.0305314 0.0155312 -0.00453624 -0.010098 0.125518 0.263567 -0.106554 0.172444 0.215366 0.0832344 5.84678e-09 5.84678e-09 5.84477e-09 2.15185e-07 2.15102e-07 2.15215e-07 9.34152e-06 9.34154e-06 9.33322e-06 9.34152e-06 9.34154e-06 9.33322e-06 0.0335725 0.0335725 0.0335635
1702990812.477374000 0 1 1 1 1 1 -2.49765 -0.298364 0.976095 0.0135989 0.0209796 -0.0309126 0.0154733 -0.0141908 -0.0168052 0.121285 0.275061 -0.0835778 0.229112 -0.539654 -0.423719 5.85935e-09 5.85935e-09 5.85733e-09 2.15997e-07 2.15902e-07 2.16027e-07 9.36388e-06 9.36389e-06 9.35555e-06 9.36388e-06 9.36389e-06 9.35555e-06 0.0340479 0.0340479 0.0340388
1702990812.482377000 0 1 1 1 1 1 -2.49756 -0.298369 0.97601 0.0143529 0.0222264 -0.0318251 0.021886 -0.00773192 -0.0175945 0.119628 0.289467 -0.116126 0.645663 0.168437 -0.455809 5.53159e-09 5.53159e-09 5.5298e-09 1.97603e-07 1.97506e-07 1.97633e-07 8.81797e-06 8.81798e-06 8.81012e-06 8.81797e-06 8.81798e-06 8.81012e-06 0.0255282 0.0255282 0.0255191
1702990812.487372000 0 1 1 1 1 1 -2.49755 -0.298418 0.97597 0.0150411 0.023485 -0.0323588 0.0160688 -0.00833163 -0.0115037 0.121033 0.286637 -0.102872 0.054131 0.0466387 0.200849 5.85861e-09 5.85861e-09 5.85659e-09 2.15972e-07 2.15853e-07 2.16002e-07 9.36245e-06 9.36246e-06 9.35417e-06 9.36245e-06 9.36246e-06 9.35417e-06 0.0340204 0.0340204 0.0340114
1702990812.492394000 0 1 1 1 1 1 -2.49747 -0.298528 0.975849 0.0157366 0.0247712 -0.0328937 0.0219657 -0.0164078 -0.0152479 0.119376 0.293469 -0.0944737 0.610469 -0.504361 0.00303231 5.53697e-09 5.53697e-09 5.53518e-09 1.97899e-07 1.97778e-07 1.97928e-07 8.82635e-06 8.82636e-06 8.81857e-06 8.82635e-06 8.82636e-06 8.81857e-06 0.0256102 0.0256102 0.0256012
1702990812.497373000 0 1 1 1 1 1 -2.49738 -0.298545 0.975725 0.0163104 0.0262606 -0.0336446 0.0247178 -0.0102266 -0.0199132 0.110223 0.312317 -0.112293 0.637993 0.129965 -0.346084 5.85901e-09 5.85902e-09 5.85701e-09 2.16021e-07 2.15873e-07 2.16052e-07 9.36286e-06 9.36287e-06 9.35459e-06 9.36286e-06 9.36287e-06 9.35459e-06 0.0340734 0.0340734 0.0340644
1702990812.502389000 0 1 1 1 1 1 -2.49737 -0.298638 0.975628 0.0169439 0.0276144 -0.0341995 0.0184517 -0.0153292 -0.0185972 0.104475 0.318672 -0.0981438 0.0837677 -0.345858 -0.111503 5.53543e-09 5.53543e-09 5.53365e-09 1.97837e-07 1.97687e-07 1.97866e-07 8.82334e-06 8.82335e-06 8.81559e-06 8.82334e-06 8.82335e-06 8.81559e-06 0.0256166 0.0256166 0.0256076
1702990812.507356000 0 1 1 1 1 1 -2.49726 -0.298733 0.975511 0.0175461 0.0289832 -0.0347131 0.0253745 -0.0189862 -0.0203294 0.106925 0.313364 -0.0930851 0.627306 -0.473453 -0.143057 5.85325e-09 5.85325e-09 5.85125e-09 2.15679e-07 2.15498e-07 2.15708e-07 9.35199e-06 9.352e-06 9.34379e-06 9.35199e-06 9.352e-06 9.34379e-06 0.0338485 0.0338485 0.0338396
1702990812.512352000 0 1 1 1 1 1 -2.49718 -0.298757 0.975376 0.0180189 0.0305442 -0.0354173 0.026109 -0.0123358 -0.0231712 0.0934222 0.331994 -0.104512 0.500649 0.146025 -0.280349 5.85192e-09 5.85192e-09 5.84993e-09 2.15614e-07 2.15413e-07 2.15644e-07 9.34953e-06 9.34954e-06 9.34135e-06 9.34953e-06 9.34954e-06 9.34135e-06 0.0337868 0.0337869 0.0337779
1702990812.517366000 0 1 1 1 1 1 -2.49713 -0.298872 0.975253 0.0184947 0.0320917 -0.0360355 0.0220265 -0.0183431 -0.0230638 0.085994 0.341712 -0.10292 0.135179 -0.355204 -0.146289 5.85662e-09 5.85663e-09 5.85464e-09 2.1594e-07 2.15718e-07 2.15969e-07 9.35796e-06 9.35797e-06 9.3498e-06 9.35796e-06 9.35797e-06 9.3498e-06 0.0339567 0.0339567 0.0339478
1702990812.522338000 0 1 1 1 1 1 -2.49699 -0.298965 0.97511 0.0190012 0.0335862 -0.0365341 0.0301616 -0.0199177 -0.0251111 0.0864312 0.343181 -0.0927751 0.734289 -0.305067 -0.198594 5.84707e-09 5.84708e-09 5.8451e-09 2.15357e-07 2.15115e-07 2.15387e-07 9.34114e-06 9.34115e-06 9.33302e-06 9.34114e-06 9.34115e-06 9.33302e-06 0.0335897 0.0335897 0.0335809
1702990812.527349000 0 1 1 1 1 1 -2.49691 -0.299013 0.974958 0.0193562 0.0352968 -0.0371709 0.0283489 -0.014757 -0.0270748 0.0723448 0.359674 -0.0985584 0.395118 0.145973 -0.239085 5.85198e-09 5.85198e-09 5.85e-09 2.1575e-07 2.15482e-07 2.1578e-07 9.3509e-06 9.35092e-06 9.34278e-06 9.3509e-06 9.35092e-06 9.34278e-06 0.0338741 0.0338741 0.0338652
1702990812.532372000 0 1 1 1 1 1 -2.49683 -0.299155 0.974808 0.0197097 0.0370051 -0.0378289 0.0275357 -0.0225614 -0.0277859 0.0646909 0.372022 -0.102845 0.311002 -0.456844 -0.1651 5.86063e-09 5.86063e-09 5.85865e-09 2.16345e-07 2.16049e-07 2.16374e-07 9.36651e-06 9.36652e-06 9.3584e-06 9.36651e-06 9.36652e-06 9.3584e-06 0.0342042 0.0342042 0.0341954
1702990812.537363000 0 1 1 1 1 1 -2.49667 -0.299244 0.974631 0.0200919 0.0386762 -0.0382804 0.0352863 -0.021307 -0.0312044 0.0647679 0.374901 -0.0878234 0.811947 -0.175526 -0.325183 5.85825e-09 5.85825e-09 5.85628e-09 2.16212e-07 2.1589e-07 2.16242e-07 9.36201e-06 9.36202e-06 9.35392e-06 9.36201e-06 9.36202e-06 9.35392e-06 0.0341058 0.0341058 0.034097
1702990812.542338000 0 1 1 1 1 1 -2.49658 -0.299325 0.97447 0.0202559 0.040459 -0.0389214 0.0316086 -0.0191113 -0.0316847 0.0461634 0.386064 -0.0977884 0.336156 0.00455414 -0.246524 5.85024e-09 5.85025e-09 5.84829e-09 2.15721e-07 2.15368e-07 2.1575e-07 9.34744e-06 9.34746e-06 9.33937e-06 9.34744e-06 9.34746e-06 9.33937e-06 0.0337844 0.0337844 0.0337756
1702990812.547378000 0 1 1 1 1 1 -2.49645 -0.299484 0.974306 0.0204048 0.0423043 -0.0396127 0.0337233 -0.026719 -0.0307853 0.0325508 0.397308 -0.104622 0.472819 -0.528359 -0.0284659 5.86429e-09 5.8643e-09 5.86233e-09 2.16649e-07 2.16262e-07 2.16679e-07 9.3723e-06 9.37231e-06 9.36423e-06 9.3723e-06 9.37231e-06 9.36423e-06 0.0342979 0.0342979 0.0342891
1702990812.552340000 0 1 1 1 1 1 -2.49629 -0.299567 0.974098 0.0206199 0.0441127 -0.0399424 0.039353 -0.0227361 -0.0356699 0.0315512 0.404639 -0.079888 0.7573 -0.0516035 -0.30329 5.85167e-09 5.85167e-09 5.84972e-09 2.15865e-07 2.15445e-07 2.15894e-07 9.34964e-06 9.34966e-06 9.34161e-06 9.34964e-06 9.34966e-06 9.34161e-06 0.0337979 0.0337979 0.0337891
1702990812.557361000 0 1 1 1 1 1 -2.49618 -0.299683 0.973894 0.0206121 0.0460233 -0.0406253 0.035644 -0.0232403 -0.0385598 0.0131496 0.412922 -0.0973459 0.299874 -0.0971317 -0.42537 5.85894e-09 5.85895e-09 5.85699e-09 2.16367e-07 2.15909e-07 2.16396e-07 9.36269e-06 9.36271e-06 9.35464e-06 9.36269e-06 9.36271e-06 9.35464e-06 0.0340589 0.0340589 0.0340501
1702990812.562372000 0 1 1 1 1 1 -2.49601 -0.299843 0.973719 0.020589 0.0479255 -0.0412661 0.0404515 -0.0289147 -0.0363092 1.91323e-06 0.419773 -0.0994676 0.628576 -0.439683 -0.0981407 5.86283e-09 5.86283e-09 5.86088e-09 2.16659e-07 2.16162e-07 2.16689e-07 9.36985e-06 9.36986e-06 9.36181e-06 9.36985e-06 9.36986e-06 9.36181e-06 0.0341989 0.034199 0.0341902
1702990812.567394000 0 1 1 1 1 1 -2.49583 -0.299942 0.973492 0.0206542 0.0498907 -0.041455 0.0441254 -0.0248164 -0.0397761 0.00130176 0.42744 -0.064709 0.718605 0.00851729 -0.220946 5.8704e-09 5.87041e-09 5.86845e-09 2.172e-07 2.1666e-07 2.17229e-07 9.38376e-06 9.38378e-06 9.37575e-06 9.38376e-06 9.38378e-06 9.37575e-06 0.0344855 0.0344855 0.0344768
1702990812.572344000 0 1 1 1 1 1 -2.49569 -0.300091 0.973259 0.0204727 0.0518361 -0.0422194 0.0418908 -0.0279905 -0.0436552 -0.0173756 0.433921 -0.096753 0.405132 -0.236696 -0.425279 5.85346e-09 5.85347e-09 5.85152e-09 2.16152e-07 2.15573e-07 2.16182e-07 9.35376e-06 9.35379e-06 9.34576e-06 9.35376e-06 9.35379e-06 9.34576e-06 0.0338329 0.0338329 0.0338241
1702990812.577366000 0 1 1 1 1 1 -2.49548 -0.300252 0.973051 0.0202624 0.0538246 -0.0427673 0.0475177 -0.0312127 -0.0422067 -0.0336371 0.439493 -0.090388 0.740928 -0.356858 -0.170576 5.86099e-09 5.86099e-09 5.85904e-09 2.16684e-07 2.16058e-07 2.16714e-07 9.36749e-06 9.36751e-06 9.35948e-06 9.36749e-06 9.36751e-06 9.35948e-06 0.0341167 0.0341168 0.034108
1702990812.582371000 0 1 1 1 1 1 -2.49528 -0.300375 0.972813 0.0201387 0.0558096 -0.0428815 0.0492108 -0.0285805 -0.0440487 -0.0352029 0.442405 -0.0557035 0.665428 -0.0598488 -0.147486 5.86267e-09 5.86268e-09 5.86074e-09 2.16847e-07 2.16173e-07 2.16876e-07 9.3708e-06 9.37083e-06 9.36283e-06 9.3708e-06 9.37083e-06 9.36283e-06 0.0341812 0.0341812 0.0341726
1702990812.587393000 0 1 1 1 1 1 -2.49509 -0.300548 0.972539 0.0198114 0.0578792 -0.0437248 0.0494159 -0.0322698 -0.0493151 -0.0496227 0.450207 -0.0978069 0.534347 -0.303777 -0.444015 5.87021e-09 5.87022e-09 5.86827e-09 2.17392e-07 2.16665e-07 2.17421e-07 9.38463e-06 9.38466e-06 9.37665e-06 9.38463e-06 9.38466e-06 9.37665e-06 0.0344711 0.0344711 0.0344624
1702990812.592386000 0 1 1 1 1 1 -2.49486 -0.300705 0.972298 0.0194094 0.059889 -0.0440476 0.0540263 -0.032939 -0.0492227 -0.0672115 0.454831 -0.0707966 0.741966 -0.231971 -0.319348 5.86785e-09 5.86786e-09 5.86592e-09 2.17287e-07 2.1651e-07 2.17317e-07 9.38055e-06 9.38057e-06 9.37255e-06 9.38055e-06 9.38057e-06 9.37255e-06 0.0343786 0.0343787 0.0343699
1702990812.597451000 0 1 1 1 1 1 -2.49464 -0.300868 0.972034 0.0190221 0.0618879 -0.0442542 0.0551573 -0.0334179 -0.0500239 -0.0803528 0.457146 -0.054615 0.647019 -0.198784 -0.220678 5.55937e-09 5.55938e-09 5.55765e-09 1.99734e-07 1.98971e-07 1.99763e-07 8.86346e-06 8.86349e-06 8.85592e-06 8.86346e-06 8.86349e-06 8.85592e-06 0.0259128 0.0259128 0.0259041
1702990812.602369000 0 1 1 1 1 1 -2.49439 -0.30104 0.971762 0.0185623 0.0638872 -0.0450149 0.0581031 -0.0351697 -0.0525796 -0.0864512 0.453231 -0.091086 0.699414 -0.253009 -0.282571 5.86218e-09 5.86219e-09 5.86025e-09 2.17023e-07 2.16139e-07 2.17053e-07 9.37051e-06 9.37054e-06 9.36256e-06 9.37051e-06 9.37054e-06 9.36256e-06 0.0341562 0.0341562 0.0341475
1702990812.607375000 0 1 1 1 1 1 -2.49414 -0.301209 0.971473 0.0179687 0.0660026 -0.0451455 0.0605669 -0.0350894 -0.0550718 -0.104372 0.464946 -0.049841 0.694359 -0.157018 -0.349384 5.86421e-09 5.86421e-09 5.86228e-09 2.1722e-07 2.16276e-07 2.1725e-07 9.37434e-06 9.37437e-06 9.36638e-06 9.37434e-06 9.37437e-06 9.36638e-06 0.0342334 0.0342335 0.0342247
1702990812.612401000 0 1 1 1 1 1 -2.49387 -0.301399 0.971186 0.0174416 0.0679577 -0.0453475 0.0634075 -0.0374 -0.056066 -0.109944 0.45828 -0.0419129 0.737536 -0.26416 -0.27874 5.87312e-09 5.87313e-09 5.87119e-09 2.17866e-07 2.16862e-07 2.17896e-07 9.39059e-06 9.39062e-06 9.38263e-06 9.39059e-06 9.39062e-06 9.38263e-06 0.0345816 0.0345817 0.034573
1702990812.617347000 0 1 1 1 1 1 -2.49358 -0.301571 0.970882 0.016807 0.0698804 -0.0461434 0.0671274 -0.0366747 -0.0584004 -0.119578 0.450483 -0.0829707 0.811301 -0.112398 -0.317151 5.85478e-09 5.85478e-09 5.85286e-09 2.16725e-07 2.15669e-07 2.16754e-07 9.35762e-06 9.35765e-06 9.34969e-06 9.35762e-06 9.35765e-06 9.34969e-06 0.0338704 0.0338705 0.0338618
1702990812.622359000 0 1 1 1 1 1 -2.4933 -0.301762 0.970578 0.0160619 0.0719421 -0.0460989 0.0675535 -0.0381473 -0.0593329 -0.135716 0.458159 -0.0311478 0.64205 -0.193264 -0.238351 5.85889e-09 5.8589e-09 5.85698e-09 2.17053e-07 2.15932e-07 2.17082e-07 9.36501e-06 9.36505e-06 9.35709e-06 9.36501e-06 9.36505e-06 9.35709e-06 0.0340268 0.0340269 0.0340182
1702990812.627354000 0 1 1 1 1 1 -2.49297 -0.301974 0.970246 0.0153586 0.0739371 -0.0464001 0.0735541 -0.0412816 -0.0624393 -0.142409 0.459565 -0.038404 0.926945 -0.330214 -0.322899 5.85709e-09 5.8571e-09 5.85518e-09 2.16993e-07 2.15809e-07 2.17022e-07 9.36169e-06 9.36173e-06 9.35379e-06 9.36169e-06 9.36173e-06 9.35379e-06 0.0339486 0.0339487 0.03394
1702990812.632375000 0 1 1 1 1 1 -2.49264 -0.302139 0.969905 0.0145731 0.075838 -0.0470506 0.0758615 -0.0376542 -0.0656998 -0.151206 0.451271 -0.0655277 0.820517 0.0311364 -0.443867 5.86422e-09 5.86423e-09 5.8623e-09 2.17506e-07 2.16258e-07 2.17535e-07 9.37428e-06 9.37433e-06 9.36638e-06 9.37428e-06 9.37433e-06 9.36638e-06 0.0342205 0.0342206 0.0342119
1702990812.637334000 0 1 1 1 1 1 -2.49233 -0.302365 0.969589 0.0136441 0.0777488 -0.0469717 0.0756652 -0.0423055 -0.0642288 -0.171346 0.448123 -0.0183255 0.61055 -0.325123 -0.16094 5.85031e-09 5.85032e-09 5.84841e-09 2.16664e-07 2.15358e-07 2.16694e-07 9.34927e-06 9.34931e-06 9.34139e-06 9.34927e-06 9.34931e-06 9.34139e-06 0.0336925 0.0336926 0.0336839
1702990812.642366000 0 1 1 1 1 1 -2.49193 -0.302576 0.969231 0.0128025 0.0795804 -0.0473626 0.0847872 -0.0432162 -0.0669294 -0.176434 0.43941 -0.0370064 1.11769 -0.24405 -0.206953 5.86111e-09 5.86112e-09 5.8592e-09 2.17422e-07 2.16049e-07 2.17451e-07 9.36844e-06 9.36849e-06 9.36057e-06 9.36844e-06 9.36849e-06 9.36057e-06 0.034101 0.0341011 0.0340925
1702990812.647376000 0 1 1 1 1 1 -2.49158 -0.302745 0.968836 0.0119129 0.0814012 -0.0478068 0.0841716 -0.0382287 -0.0731477 -0.179419 0.432598 -0.0466126 0.728808 0.176134 -0.556283 5.86454e-09 5.86455e-09 5.86263e-09 2.17709e-07 2.1627e-07 2.17738e-07 9.37453e-06 9.37459e-06 9.36666e-06 9.37453e-06 9.37459e-06 9.36666e-06 0.0342342 0.0342343 0.0342257
1702990812.652378000 0 1 1 1 1 1 -2.4912 -0.303008 0.968487 0.0108399 0.0831474 -0.0478079 0.0858486 -0.0464891 -0.0720955 -0.198547 0.425207 -0.0156076 0.707953 -0.467511 -0.328982 5.86522e-09 5.86523e-09 5.86331e-09 2.17814e-07 2.16312e-07 2.17844e-07 9.37568e-06 9.37573e-06 9.36779e-06 9.37568e-06 9.37573e-06 9.36779e-06 0.0342598 0.0342598 0.0342511
1702990812.657393000 0 1 1 1 1 1 -2.49076 -0.303194 0.968101 0.00984745 0.0847638 -0.0482142 0.0954083 -0.042019 -0.0738429 -0.210046 0.413986 -0.0341064 1.1936 0.0844129 -0.28182 5.54085e-09 5.54086e-09 5.53916e-09 1.99437e-07 1.98008e-07 1.99465e-07 8.83381e-06 8.83386e-06 8.8264e-06 8.83381e-06 8.83386e-06 8.8264e-06 0.0256392 0.0256393 0.0256306
1702990812.662367000 0 1 1 1 1 1 -2.49037 -0.303397 0.967705 0.00884861 0.0864854 -0.0484476 0.0926442 -0.0409371 -0.0766839 -0.208377 0.40626 -0.0277379 0.624329 0.105774 -0.335144 5.86145e-09 5.86146e-09 5.85955e-09 2.17697e-07 2.16073e-07 2.17725e-07 9.36887e-06 9.36893e-06 9.36104e-06 9.36887e-06 9.36893e-06 9.36104e-06 0.0341162 0.0341163 0.0341077
1702990812.667382000 0 1 1 1 1 1 -2.48991 -0.303689 0.9673 0.0076796 0.0881575 -0.0486101 0.0981133 -0.0509865 -0.0783826 -0.224071 0.404148 -0.0177964 0.906534 -0.624009 -0.329532 5.8665e-09 5.86651e-09 5.86459e-09 2.18098e-07 2.16407e-07 2.18127e-07 9.3781e-06 9.37816e-06 9.37023e-06 9.3781e-06 9.37816e-06 9.37023e-06 0.0343138 0.0343138 0.0343052
1702990812.672383000 0 1 1 1 1 1 -2.48941 -0.30386 0.966881 0.00667541 0.0896418 -0.0488553 0.107188 -0.0431811 -0.0811733 -0.223919 0.388751 -0.0196332 1.26592 0.158169 -0.380936 5.86684e-09 5.86685e-09 5.86494e-09 2.18176e-07 2.16427e-07 2.18205e-07 9.37867e-06 9.37874e-06 9.37083e-06 9.37867e-06 9.37874e-06 9.37083e-06 0.0343259 0.034326 0.0343173
1702990812.677399000 0 1 1 1 1 1 -2.489 -0.304104 0.966448 0.00560477 0.0910572 -0.049095 0.101584 -0.0465387 -0.0833697 -0.229192 0.373735 -0.0194971 0.531483 -0.229982 -0.37559 5.54267e-09 5.54269e-09 5.54099e-09 1.99759e-07 1.98107e-07 1.99787e-07 8.83678e-06 8.83685e-06 8.8294e-06 8.83678e-06 8.83685e-06 8.8294e-06 0.0256654 0.0256655 0.0256569
1702990812.682366000 0 1 1 1 1 1 -2.48846 -0.304374 0.966029 0.00441109 0.0925528 -0.0493504 0.111584 -0.0521738 -0.0835662 -0.237513 0.366537 -0.0202474 1.15102 -0.531067 -0.224225 5.86097e-09 5.86099e-09 5.85908e-09 2.17906e-07 2.16044e-07 2.17934e-07 9.36808e-06 9.36815e-06 9.36026e-06 9.36808e-06 9.36815e-06 9.36026e-06 0.0341005 0.0341006 0.034092
1702990812.687333000 0 1 1 1 1 1 -2.48793 -0.304538 0.965557 0.00332809 0.093947 -0.0494149 0.117357 -0.0424157 -0.0887873 -0.238723 0.360885 -0.00392115 1.18744 0.352712 -0.442457 5.84984e-09 5.84985e-09 5.84795e-09 2.17244e-07 2.15332e-07 2.17273e-07 9.34819e-06 9.34827e-06 9.34042e-06 9.34819e-06 9.34827e-06 9.34042e-06 0.0336792 0.0336793 0.0336708
1702990812.692357000 0 1 1 1 1 1 -2.48746 -0.304809 0.965095 0.00220981 0.0951823 -0.0496927 0.112642 -0.0483411 -0.0909822 -0.239109 0.339752 -0.0153702 0.554982 -0.22821 -0.472105 5.85796e-09 5.85798e-09 5.85608e-09 2.17824e-07 2.15856e-07 2.17853e-07 9.36278e-06 9.36286e-06 9.35498e-06 9.36278e-06 9.36286e-06 9.35498e-06 0.0339865 0.0339866 0.033978
1702990812.697386000 0 1 1 1 1 1 -2.48683 -0.305083 0.964654 0.00102992 0.0963931 -0.0500025 0.125669 -0.0527771 -0.0880902 -0.244232 0.325865 -0.0201105 1.36774 -0.409456 -0.0594028 5.86781e-09 5.86783e-09 5.86591e-09 2.18527e-07 2.16503e-07 2.18557e-07 9.38067e-06 9.38074e-06 9.37284e-06 9.38067e-06 9.38074e-06 9.37284e-06 0.0343688 0.0343689 0.0343602
1702990812.702368000 0 1 1 1 1 1 -2.48628 -0.305256 0.964156 -2.71061e-05 0.0976152 -0.0498611 0.12671 -0.0436269 -0.0927685 -0.241299 0.320671 0.0129185 1.01833 0.342368 -0.229066 5.86166e-09 5.86168e-09 5.85978e-09 2.18177e-07 2.16104e-07 2.18205e-07 9.36961e-06 9.3697e-06 9.36184e-06 9.36961e-06 9.3697e-06 9.36184e-06 0.0341298 0.0341299 0.0341214
1702990812.707359000 0 1 1 1 1 1 -2.48573 -0.30555 0.963628 -0.00114696 0.0987259 -0.0502399 0.125076 -0.0517304 -0.0994682 -0.240992 0.306924 -0.0144458 0.654455 -0.369887 -0.637585 5.85863e-09 5.85864e-09 5.85674e-09 2.18016e-07 2.15898e-07 2.18045e-07 9.36404e-06 9.36412e-06 9.35624e-06 9.36404e-06 9.36412e-06 9.35624e-06 0.0340144 0.0340145 0.0340059
1702990812.712390000 0 1 1 1 1 1 -2.48505 -0.305793 0.963153 -0.0022856 0.0997664 -0.0504314 0.137669 -0.0510906 -0.0974268 -0.243369 0.294763 -0.00733072 1.3722 -0.155215 -0.314044 5.86913e-09 5.86915e-09 5.86724e-09 2.18743e-07 2.16573e-07 2.18772e-07 9.38283e-06 9.38291e-06 9.375e-06 9.38283e-06 9.38291e-06 9.375e-06 0.034417 0.034417 0.0344083
1702990812.717368000 0 1 1 1 1 1 -2.48444 -0.305995 0.962646 -0.00336641 0.100775 -0.0502153 0.137401 -0.0452635 -0.0979926 -0.243221 0.283827 0.0267193 0.929717 0.281127 -0.118851 5.86164e-09 5.86166e-09 5.85976e-09 2.18292e-07 2.16083e-07 2.18321e-07 9.36919e-06 9.36928e-06 9.36142e-06 9.36919e-06 9.36928e-06 9.36142e-06 0.0341282 0.0341283 0.0341197
1702990812.722343000 0 1 1 1 1 1 -2.48381 -0.306288 0.962101 -0.00443964 0.101688 -0.05065 0.139912 -0.0527435 -0.103319 -0.241106 0.268493 -0.0103796 0.906152 -0.339768 -0.413375 5.85319e-09 5.85321e-09 5.85131e-09 2.17786e-07 2.15541e-07 2.17815e-07 9.35408e-06 9.35417e-06 9.34629e-06 9.35408e-06 9.35417e-06 9.34629e-06 0.0338048 0.0338048 0.0337962
1702990812.727352000 0 1 1 1 1 1 -2.48309 -0.306521 0.961571 -0.00547677 0.102633 -0.0507015 0.149619 -0.0500212 -0.103942 -0.235694 0.264238 0.00660155 1.32719 -0.00147773 -0.298859 5.85615e-09 5.85617e-09 5.85427e-09 2.18013e-07 2.15724e-07 2.18042e-07 9.35921e-06 9.3593e-06 9.35141e-06 9.35921e-06 9.3593e-06 9.35141e-06 0.0339086 0.0339087 0.0339
1702990812.732359000 0 1 1 1 1 1 -2.48242 -0.306753 0.961023 -0.00646786 0.103447 -0.0504902 0.149397 -0.0481096 -0.106026 -0.231151 0.250994 0.0323609 0.937765 0.102396 -0.262478 5.85847e-09 5.85849e-09 5.85659e-09 2.18202e-07 2.15875e-07 2.18231e-07 9.36333e-06 9.36343e-06 9.35556e-06 9.36333e-06 9.36343e-06 9.35556e-06 0.0339987 0.0339988 0.0339902
1702990812.737365000 0 1 1 1 1 1 -2.4817 -0.307031 0.960443 -0.00748087 0.104132 -0.0508727 0.154326 -0.0522497 -0.110588 -0.229932 0.228676 -0.00215691 1.04409 -0.213495 -0.489294 5.86048e-09 5.8605e-09 5.8586e-09 2.18372e-07 2.16012e-07 2.18401e-07 9.3671e-06 9.3672e-06 9.35929e-06 9.3671e-06 9.3672e-06 9.35929e-06 0.0340772 0.0340773 0.0340686
1702990812.742399000 0 1 1 1 1 1 -2.48095 -0.307263 0.95988 -0.00830971 0.104816 -0.050736 0.159913 -0.0493259 -0.110664 -0.216824 0.218736 0.0290514 1.14273 0.0745933 -0.320203 5.54246e-09 5.54248e-09 5.54078e-09 2.00285e-07 1.98092e-07 2.00313e-07 8.8363e-06 8.83639e-06 8.82893e-06 8.8363e-06 8.83639e-06 8.82893e-06 0.0256621 0.0256622 0.0256535
1702990812.747338000 0 1 1 1 1 1 -2.48019 -0.307511 0.959315 -0.0091758 0.105626 -0.050606 0.1634 -0.0496476 -0.111783 -0.206513 0.220271 0.0391857 1.06187 0.0211815 -0.203708 5.85124e-09 5.85126e-09 5.84936e-09 2.17841e-07 2.15419e-07 2.1787e-07 9.3506e-06 9.35069e-06 9.34282e-06 9.3506e-06 9.35069e-06 9.34282e-06 0.0337289 0.033729 0.0337204
1702990812.752377000 0 1 1 1 1 1 -2.47941 -0.307762 0.958698 -0.0100625 0.10617 -0.0508528 0.167803 -0.0498959 -0.11736 -0.205727 0.200947 0.0134972 1.08021 -0.00182107 -0.529598 5.86445e-09 5.86448e-09 5.86257e-09 2.18728e-07 2.16272e-07 2.18758e-07 9.37434e-06 9.37444e-06 9.36652e-06 9.37434e-06 9.37444e-06 9.36652e-06 0.0342344 0.0342345 0.0342258
1702990812.757365000 0 1 1 1 1 1 -2.4786 -0.308014 0.958128 -0.0108301 0.106737 -0.0508041 0.172375 -0.0503351 -0.114808 -0.196804 0.190249 0.0261075 1.09494 -0.0366145 -0.154073 5.86034e-09 5.86036e-09 5.85845e-09 2.18488e-07 2.16008e-07 2.18517e-07 9.36704e-06 9.36714e-06 9.35921e-06 9.36704e-06 9.36714e-06 9.35921e-06 0.0340762 0.0340763 0.0340676
1702990812.762388000 0 1 1 1 1 1 -2.47776 -0.308257 0.95752 -0.0114421 0.107203 -0.0505874 0.17876 -0.0492048 -0.115165 -0.179746 0.180281 0.0447847 1.27229 0.0745831 0.0511767 5.53887e-09 5.53889e-09 5.53719e-09 2.00203e-07 1.97911e-07 2.00232e-07 8.8307e-06 8.83079e-06 8.82333e-06 8.8307e-06 8.83079e-06 8.82333e-06 0.0256135 0.0256136 0.0256049
1702990812.767316000 0 1 1 1 1 1 -2.47693 -0.30849 0.95686 -0.0122261 0.107713 -0.0506512 0.180559 -0.0478201 -0.124458 -0.180637 0.170437 0.0306004 1.01501 0.143277 -0.583343 5.84373e-09 5.84376e-09 5.84186e-09 2.1746e-07 2.14946e-07 2.17489e-07 9.33741e-06 9.33752e-06 9.32963e-06 9.33741e-06 9.33752e-06 9.32963e-06 0.0334507 0.0334509 0.0334422
1702990812.772345000 0 1 1 1 1 1 -2.47606 -0.308761 0.95625 -0.0128677 0.108097 -0.0507055 0.185159 -0.0512696 -0.123332 -0.172571 0.157438 0.0260082 1.08074 -0.150305 -0.358578 5.85355e-09 5.85358e-09 5.85167e-09 2.18117e-07 2.15577e-07 2.18146e-07 9.35505e-06 9.35515e-06 9.34722e-06 9.35505e-06 9.35515e-06 9.34722e-06 0.033821 0.0338211 0.0338124
1702990812.777422000 0 1 1 1 1 1 -2.47513 -0.308986 0.955602 -0.0133059 0.108359 -0.0503222 0.192423 -0.0473357 -0.124361 -0.152042 0.143206 0.0607821 1.28009 0.215407 -0.256365 5.54968e-09 5.5497e-09 5.548e-09 2.0082e-07 1.98471e-07 2.00849e-07 8.84812e-06 8.84822e-06 8.84072e-06 8.84812e-06 8.84822e-06 8.84072e-06 0.0257663 0.0257664 0.0257576
1702990812.782401000 0 1 1 1 1 1 -2.47424 -0.309233 0.954962 -0.013856 0.108591 -0.0503752 0.19284 -0.0481431 -0.124657 -0.146003 0.125466 0.0370393 0.922284 0.0471385 -0.065964 5.54302e-09 5.54304e-09 5.54134e-09 2.00485e-07 1.9813e-07 2.00513e-07 8.8375e-06 8.83761e-06 8.83013e-06 8.8375e-06 8.83761e-06 8.83013e-06 0.0256711 0.0256712 0.0256625
1702990812.787331000 0 1 1 1 1 1 -2.47329 -0.309499 0.954291 -0.0144926 0.108902 -0.050502 0.199694 -0.0517729 -0.13006 -0.150574 0.121293 0.0218723 1.1676 -0.227651 -0.406618 5.8488e-09 5.84883e-09 5.84692e-09 2.17851e-07 2.15277e-07 2.17881e-07 9.34674e-06 9.34684e-06 9.3389e-06 9.34674e-06 9.34684e-06 9.3389e-06 0.0336413 0.0336414 0.0336327
1702990812.792358000 0 1 1 1 1 1 -2.47231 -0.309704 0.95363 -0.0147956 0.109046 -0.0499055 0.206728 -0.0460204 -0.130791 -0.126627 0.108891 0.0752654 1.31274 0.261103 -0.32151 5.85791e-09 5.85793e-09 5.85601e-09 2.18456e-07 2.15868e-07 2.18485e-07 9.36318e-06 9.36329e-06 9.35533e-06 9.36318e-06 9.36329e-06 9.35533e-06 0.0339886 0.0339887 0.03398
1702990812.797367000 0 1 1 1 1 1 -2.47135 -0.30995 0.952965 -0.0152639 0.109077 -0.0498952 0.206455 -0.0469813 -0.130136 -0.126572 0.0887083 0.0501827 0.912856 0.0745275 -0.0933314 5.86102e-09 5.86104e-09 5.85912e-09 2.1867e-07 2.16078e-07 2.187e-07 9.36899e-06 9.3691e-06 9.36114e-06 9.36899e-06 9.3691e-06 9.36114e-06 0.0341088 0.0341089 0.0341002
1702990812.802376000 0 1 1 1 1 1 -2.47031 -0.310204 0.952275 -0.0156256 0.109043 -0.0500765 0.215543 -0.0490157 -0.131931 -0.122578 0.0753816 0.0321896 1.36458 -0.0557929 -0.0854751 5.53503e-09 5.53505e-09 5.53334e-09 2.00116e-07 1.97746e-07 2.00145e-07 8.82547e-06 8.82557e-06 8.81805e-06 8.82547e-06 8.82557e-06 8.81805e-06 0.0255688 0.0255689 0.0255601
1702990812.807340000 0 1 1 1 1 1 -2.46928 -0.310406 0.951564 -0.0158247 0.10923 -0.0493101 0.219572 -0.0441243 -0.137256 -0.098091 0.0810454 0.0964073 1.22646 0.317391 -0.403883 5.85177e-09 5.8518e-09 5.84988e-09 2.18091e-07 2.15499e-07 2.18121e-07 9.35298e-06 9.3531e-06 9.34511e-06 9.35298e-06 9.3531e-06 9.34511e-06 0.0337597 0.0337598 0.0337511
1702990812.812356000 0 1 1 1 1 1 -2.46825 -0.310659 0.950877 -0.0161528 0.109107 -0.0494808 0.220986 -0.047012 -0.13703 -0.0987167 0.0619363 0.044855 1.00529 -0.011778 -0.254087 5.85723e-09 5.85726e-09 5.85533e-09 2.18424e-07 2.15834e-07 2.18454e-07 9.36258e-06 9.36269e-06 9.35468e-06 9.36258e-06 9.36269e-06 9.35468e-06 0.033962 0.0339621 0.0339533
1702990812.817377000 0 1 1 1 1 1 -2.46713 -0.310895 0.950174 -0.0164229 0.108942 -0.0496614 0.229459 -0.0470395 -0.136982 -0.0955022 0.045973 0.0262275 1.32424 0.0123106 -0.0939631 5.86443e-09 5.86445e-09 5.86252e-09 2.18871e-07 2.16283e-07 2.18901e-07 9.37525e-06 9.37536e-06 9.36734e-06 9.37525e-06 9.37536e-06 9.36734e-06 0.0342355 0.0342356 0.0342268
1702990812.822395000 0 1 1 1 1 1 -2.46605 -0.311108 0.949442 -0.0164569 0.108748 -0.0486993 0.231675 -0.0443445 -0.139612 -0.0779024 0.0381482 0.107431 1.10336 0.174747 -0.142449 5.54113e-09 5.54115e-09 5.53944e-09 2.00393e-07 1.98032e-07 2.00422e-07 8.83501e-06 8.83512e-06 8.82756e-06 8.83501e-06 8.83512e-06 8.82756e-06 0.0256445 0.0256447 0.0256359
1702990812.827364000 0 1 1 1 1 1 -2.46492 -0.311347 0.948714 -0.0166944 0.108601 -0.0490581 0.236705 -0.0461715 -0.142596 -0.0769698 0.0298224 0.0328895 1.14718 -0.0187188 -0.280672 5.85996e-09 5.85999e-09 5.85805e-09 2.18544e-07 2.15976e-07 2.18574e-07 9.36682e-06 9.36694e-06 9.3589e-06 9.36682e-06 9.36694e-06 9.3589e-06 0.0340527 0.0340528 0.034044
1702990812.832383000 0 1 1 1 1 1 -2.46377 -0.311557 0.947979 -0.0167734 0.10828 -0.0487966 0.241291 -0.0437016 -0.143636 -0.0680343 0.0202685 0.0658363 1.14882 0.164376 -0.229346 5.53719e-09 5.53722e-09 5.5355e-09 2.0016e-07 1.97821e-07 2.00189e-07 8.82843e-06 8.82854e-06 8.82096e-06 8.82843e-06 8.82854e-06 8.82096e-06 0.025588 0.0255881 0.0255793
1702990812.837366000 0 1 1 1 1 1 -2.4626 -0.311789 0.947248 -0.0168653 0.108061 -0.0479571 0.245441 -0.0449015 -0.144614 -0.0593175 0.0125535 0.119473 1.10969 0.0151308 -0.18891 5.86062e-09 5.86065e-09 5.85871e-09 2.18552e-07 2.1601e-07 2.18582e-07 9.36765e-06 9.36777e-06 9.35972e-06 9.36765e-06 9.36777e-06 9.35972e-06 0.0340787 0.0340788 0.03407
1702990812.842342000 0 1 1 1 1 1 -2.4614 -0.311999 0.94651 -0.0169946 0.107684 -0.048445 0.252097 -0.043519 -0.145899 -0.0615003 -0.00129756 0.033039 1.28058 0.119715 -0.186818 5.85237e-09 5.8524e-09 5.85047e-09 2.17996e-07 2.15478e-07 2.18027e-07 9.35279e-06 9.35291e-06 9.34485e-06 9.35279e-06 9.35291e-06 9.34485e-06 0.0337654 0.0337655 0.0337567
1702990812.847368000 0 1 1 1 1 1 -2.4602 -0.312206 0.945752 -0.0170266 0.107375 -0.0481233 0.253534 -0.0417418 -0.146861 -0.052605 -0.00238216 0.0639357 0.998106 0.18444 -0.125098 5.86122e-09 5.86124e-09 5.8593e-09 2.18552e-07 2.16042e-07 2.18582e-07 9.36841e-06 9.36853e-06 9.36046e-06 9.36841e-06 9.36853e-06 9.36046e-06 0.0341035 0.0341036 0.0340948
1702990812.852369000 0 1 1 1 1 1 -2.45895 -0.31245 0.944988 -0.0170057 0.10699 -0.0473112 0.260159 -0.0455116 -0.149247 -0.0439716 -0.0086181 0.110466 1.23175 -0.13147 -0.224722 5.86155e-09 5.86158e-09 5.85963e-09 2.18559e-07 2.16066e-07 2.18589e-07 9.369e-06 9.36911e-06 9.36102e-06 9.369e-06 9.36911e-06 9.36102e-06 0.0341162 0.0341163 0.0341074
1702990812.857366000 0 1 1 1 1 1 -2.45766 -0.312624 0.944218 -0.0171029 0.106469 -0.0478203 0.267022 -0.0394313 -0.150683 -0.0511483 -0.0259629 0.0273227 1.32632 0.355366 -0.235054 5.86052e-09 5.86054e-09 5.85859e-09 2.18466e-07 2.15999e-07 2.18497e-07 9.36709e-06 9.36721e-06 9.3591e-06 9.36709e-06 9.36721e-06 9.3591e-06 0.0340787 0.0340788 0.0340699
1702990812.862372000 0 1 1 1 1 1 -2.45643 -0.312845 0.943472 -0.0171045 0.106078 -0.0472544 0.26528 -0.0414625 -0.148783 -0.0451384 -0.0261075 0.0808449 0.855818 0.0517497 0.026623 5.86247e-09 5.8625e-09 5.86055e-09 2.18579e-07 2.16128e-07 2.18609e-07 9.37061e-06 9.37073e-06 9.36261e-06 9.37061e-06 9.37073e-06 9.36261e-06 0.0341535 0.0341537 0.0341448
1702990812.867367000 0 1 1 1 1 1 -2.45507 -0.31309 0.942682 -0.0171011 0.105612 -0.0466559 0.276583 -0.045697 -0.151602 -0.0405067 -0.0284733 0.102348 1.45205 -0.227966 -0.10543 5.86078e-09 5.86081e-09 5.85885e-09 2.18456e-07 2.16028e-07 2.18486e-07 9.36775e-06 9.36786e-06 9.35972e-06 9.36775e-06 9.36786e-06 9.35972e-06 0.0340914 0.0340915 0.0340826
1702990812.872414000 0 1 1 1 1 1 -2.45376 -0.313228 0.941872 -0.0171743 0.104951 -0.0470412 0.277056 -0.0354676 -0.155603 -0.0493006 -0.0416141 0.0382051 0.987403 0.556845 -0.346374 5.54694e-09 5.54697e-09 5.54522e-09 2.00526e-07 1.98325e-07 2.00555e-07 8.84368e-06 8.8438e-06 8.8361e-06 8.84368e-06 8.8438e-06 8.8361e-06 0.025726 0.0257262 0.0257172
1702990812.877375000 0 1 1 1 1 1 -2.45244 -0.313478 0.941129 -0.0172447 0.104374 -0.0463847 0.277009 -0.0427991 -0.151832 -0.047586 -0.0555773 0.09204 0.712231 -0.188284 0.0398215 5.8634e-09 5.86343e-09 5.86146e-09 2.18572e-07 2.16199e-07 2.18602e-07 9.37259e-06 9.3727e-06 9.36451e-06 9.37259e-06 9.3727e-06 9.36451e-06 0.0341951 0.0341953 0.0341862
1702990812.882368000 0 1 1 1 1 1 -2.451 -0.313688 0.940343 -0.0172305 0.103746 -0.0459774 0.29217 -0.0430147 -0.152991 -0.0423089 -0.0615028 0.0930304 1.62478 -0.0784302 0.0310396 5.86108e-09 5.86111e-09 5.85914e-09 2.18382e-07 2.16039e-07 2.18412e-07 9.36825e-06 9.36837e-06 9.36017e-06 9.36825e-06 9.36837e-06 9.36017e-06 0.0341062 0.0341063 0.0340973
1702990812.887372000 0 1 1 1 1 1 -2.44963 -0.313814 0.939508 -0.0174121 0.103079 -0.0461946 0.290216 -0.0325331 -0.158936 -0.0569841 -0.066908 0.0472972 0.942482 0.652893 -0.348028 5.86243e-09 5.86246e-09 5.86048e-09 2.18436e-07 2.16123e-07 2.18466e-07 9.37056e-06 9.37069e-06 9.36249e-06 9.37056e-06 9.37069e-06 9.36249e-06 0.0341574 0.0341575 0.0341486
1702990812.892382000 0 1 1 1 1 1 -2.44825 -0.31409 0.938735 -0.017572 0.102358 -0.0455872 0.290909 -0.0441817 -0.156743 -0.0630465 -0.0757146 0.0935959 0.8119 -0.401674 -0.137981 5.86581e-09 5.86584e-09 5.86385e-09 2.18619e-07 2.16336e-07 2.1865e-07 9.37653e-06 9.37663e-06 9.36838e-06 9.37653e-06 9.37663e-06 9.36838e-06 0.0342863 0.0342864 0.0342773
1702990812.897385000 0 1 1 1 1 1 -2.44674 -0.314242 0.93793 -0.0176335 0.101519 -0.0453739 0.305594 -0.036611 -0.157559 -0.0631415 -0.085842 0.0785856 1.61189 0.38716 -0.136684 5.53764e-09 5.53766e-09 5.5359e-09 1.99884e-07 1.97831e-07 1.99914e-07 8.82854e-06 8.82865e-06 8.82086e-06 8.82854e-06 8.82865e-06 8.82086e-06 0.0255967 0.0255968 0.0255877
1702990812.902354000 0 1 1 1 1 1 -2.44534 -0.314401 0.937135 -0.0179008 0.100808 -0.0453445 0.300798 -0.0324879 -0.157707 -0.0725299 -0.0914299 0.0585686 0.745419 0.508255 -0.0218045 5.85634e-09 5.85636e-09 5.85438e-09 2.17936e-07 2.15728e-07 2.17966e-07 9.35947e-06 9.35959e-06 9.35137e-06 9.35947e-06 9.35959e-06 9.35137e-06 0.0339217 0.0339218 0.0339128
1702990812.907348000 0 1 1 1 1 1 -2.44385 -0.314686 0.936311 -0.0182243 0.10001 -0.0448723 0.305972 -0.0456206 -0.160364 -0.0863614 -0.095874 0.0889556 0.976339 -0.587764 -0.216796 5.85427e-09 5.85429e-09 5.85231e-09 2.17766e-07 2.15595e-07 2.17797e-07 9.3558e-06 9.35591e-06 9.34763e-06 9.3558e-06 9.35591e-06 9.34763e-06 0.0338427 0.0338428 0.0338337
1702990812.912413000 0 1 1 1 1 1 -2.44227 -0.314792 0.935483 -0.0183946 0.0991185 -0.0446358 0.317786 -0.032169 -0.161576 -0.0870701 -0.0996142 0.0802423 1.46594 0.647587 -0.270211 5.54656e-09 5.54658e-09 5.54481e-09 2.00248e-07 1.98287e-07 2.00278e-07 8.84268e-06 8.84279e-06 8.83495e-06 8.84268e-06 8.84279e-06 8.83495e-06 0.0257199 0.0257201 0.0257109
1702990812.917352000 0 1 1 1 1 1 -2.44083 -0.314976 0.934709 -0.0187682 0.0982725 -0.0446026 0.311268 -0.0329283 -0.158043 -0.0951529 -0.111259 0.0595612 0.543236 0.333643 0.124034 5.85563e-09 5.85565e-09 5.85366e-09 2.17781e-07 2.15684e-07 2.17811e-07 9.35821e-06 9.35833e-06 9.35005e-06 9.35821e-06 9.35833e-06 9.35005e-06 0.0338946 0.0338947 0.0338857
1702990812.922374000 0 1 1 1 1 1 -2.43924 -0.315239 0.933884 -0.0191963 0.0973626 -0.0441638 0.321905 -0.0435863 -0.159911 -0.10727 -0.117602 0.0875205 1.24597 -0.482385 -0.0184481 5.86311e-09 5.86314e-09 5.86114e-09 2.18229e-07 2.16167e-07 2.1826e-07 9.37167e-06 9.37177e-06 9.36343e-06 9.37167e-06 9.37177e-06 9.36343e-06 0.0341815 0.0341816 0.0341724
1702990812.927319000 0 1 1 1 1 1 -2.43764 -0.315334 0.933058 -0.0194761 0.0965522 -0.0437763 0.330879 -0.0305413 -0.16209 -0.104455 -0.111176 0.0939662 1.45233 0.629041 -0.14187 5.84436e-09 5.84439e-09 5.8424e-09 2.16984e-07 2.14967e-07 2.17015e-07 9.33825e-06 9.33837e-06 9.33005e-06 9.33825e-06 9.33837e-06 9.33005e-06 0.0334652 0.0334654 0.0334562
1702990812.932385000 0 1 1 1 1 1 -2.43612 -0.315542 0.932245 -0.019985 0.0956085 -0.0438585 0.323486 -0.0350184 -0.160333 -0.117801 -0.11843 0.0605853 0.557727 0.0361546 0.0543858 5.86668e-09 5.8667e-09 5.86469e-09 2.18382e-07 2.16392e-07 2.18413e-07 9.37801e-06 9.37812e-06 9.36977e-06 9.37801e-06 9.37812e-06 9.36977e-06 0.0343142 0.0343143 0.0343051
1702990812.937375000 0 1 1 1 1 1 -2.43444 -0.315769 0.931415 -0.0205395 0.0945794 -0.0433821 0.337163 -0.0410285 -0.161543 -0.13175 -0.130988 0.0932219 1.42134 -0.344469 -0.0275841 5.86326e-09 5.86329e-09 5.86127e-09 2.18115e-07 2.1617e-07 2.18147e-07 9.37192e-06 9.37202e-06 9.36363e-06 9.37192e-06 9.37202e-06 9.36363e-06 0.0341826 0.0341827 0.0341735
1702990812.942402000 0 1 1 1 1 1 -2.43283 -0.315861 0.930582 -0.0210447 0.0936015 -0.043118 0.337312 -0.0284911 -0.162003 -0.144114 -0.131885 0.0862954 0.93203 0.635645 -0.00153722 5.5428e-09 5.54283e-09 5.54103e-09 1.99841e-07 1.98095e-07 1.99871e-07 8.8368e-06 8.83691e-06 8.829e-06 8.8368e-06 8.83691e-06 8.829e-06 0.0256664 0.0256666 0.0256574
1702990812.947377000 0 1 1 1 1 1 -2.43122 -0.316089 0.929776 -0.0216106 0.0926104 -0.0431703 0.33799 -0.0373935 -0.160352 -0.148324 -0.13592 0.0594932 0.802619 -0.275278 0.180668 5.53484e-09 5.53487e-09 5.53308e-09 1.99395e-07 1.9769e-07 1.99425e-07 8.82414e-06 8.82424e-06 8.81633e-06 8.82414e-06 8.82424e-06 8.81633e-06 0.0255588 0.0255589 0.0255497
1702990812.952381000 0 1 1 1 1 1 -2.42949 -0.316256 0.92893 -0.0222486 0.0915758 -0.0425947 0.349599 -0.0360117 -0.163655 -0.153052 -0.144326 0.099487 1.41715 -0.0457201 -0.108016 5.86517e-09 5.8652e-09 5.86317e-09 2.18115e-07 2.16291e-07 2.18147e-07 9.37533e-06 9.37543e-06 9.36699e-06 9.37533e-06 9.37543e-06 9.36699e-06 0.0342608 0.0342609 0.0342516
1702990812.957362000 0 1 1 1 1 1 -2.42782 -0.316365 0.928111 -0.0229696 0.0905282 -0.0422747 0.349682 -0.0275818 -0.162265 -0.169993 -0.147748 0.0956521 0.956703 0.535831 0.051517 5.85872e-09 5.85874e-09 5.85672e-09 2.17655e-07 2.15876e-07 2.17686e-07 9.36378e-06 9.36388e-06 9.35545e-06 9.36378e-06 9.36388e-06 9.35545e-06 0.0340119 0.034012 0.0340027
1702990812.962340000 0 1 1 1 1 1 -2.42614 -0.316577 0.927298 -0.0236867 0.0894195 -0.0424087 0.350814 -0.0349238 -0.160944 -0.175986 -0.154187 0.0607285 0.848433 -0.167515 0.198044 5.85131e-09 5.85133e-09 5.84931e-09 2.17131e-07 2.15399e-07 2.17162e-07 9.35045e-06 9.35055e-06 9.34213e-06 9.35045e-06 9.35055e-06 9.34213e-06 0.0337334 0.0337334 0.0337242
1702990812.967382000 0 1 1 1 1 1 -2.42434 -0.316721 0.926423 -0.0244505 0.0882917 -0.0416658 0.361226 -0.031564 -0.165613 -0.180474 -0.156844 0.1158 1.33324 0.163073 -0.163416 5.86552e-09 5.86555e-09 5.86351e-09 2.18003e-07 2.16308e-07 2.18034e-07 9.37576e-06 9.37586e-06 9.3674e-06 9.37576e-06 9.37586e-06 9.3674e-06 0.0342751 0.0342752 0.0342659
1702990812.972398000 0 1 1 1 1 1 -2.42264 -0.316859 0.925581 -0.0253951 0.0871013 -0.0416436 0.358794 -0.0287468 -0.166213 -0.206329 -0.16073 0.0775879 0.762054 0.250284 -0.190056 5.54154e-09 5.54156e-09 5.53975e-09 1.9953e-07 1.9802e-07 1.9956e-07 8.83449e-06 8.83458e-06 8.82661e-06 8.83449e-06 8.83458e-06 8.82661e-06 0.0256519 0.025652 0.0256427
1702990812.977367000 0 1 1 1 1 1 -2.42086 -0.317036 0.924786 -0.026306 0.0859359 -0.0415282 0.364324 -0.0323054 -0.161641 -0.212097 -0.170519 0.0692958 0.967731 -0.0938471 0.225886 5.86041e-09 5.86044e-09 5.8584e-09 2.1758e-07 2.15977e-07 2.17611e-07 9.36648e-06 9.36657e-06 9.35811e-06 9.36648e-06 9.36657e-06 9.35811e-06 0.0340782 0.0340782 0.034069
1702990812.982342000 0 1 1 1 1 1 -2.41907 -0.317157 0.923941 -0.0271848 0.0847944 -0.040703 0.370619 -0.0280014 -0.163986 -0.213776 -0.170168 0.125842 1.15708 0.248108 0.0496312 5.85195e-09 5.85197e-09 5.84994e-09 2.16994e-07 2.15437e-07 2.17025e-07 9.35139e-06 9.35148e-06 9.34303e-06 9.35139e-06 9.35148e-06 9.34303e-06 0.0337551 0.0337552 0.0337459
1702990812.987362000 0 1 1 1 1 1 -2.41727 -0.317294 0.923086 -0.0283351 0.0836354 -0.0406816 0.37112 -0.0267817 -0.165646 -0.238151 -0.168581 0.08574 0.849442 0.228359 -0.0656249 5.85869e-09 5.85872e-09 5.85668e-09 2.17389e-07 2.15871e-07 2.1742e-07 9.36347e-06 9.36356e-06 9.35509e-06 9.36347e-06 9.36356e-06 9.35509e-06 0.0340136 0.0340137 0.0340044
1702990812.992393000 0 1 1 1 1 1 -2.41544 -0.317443 0.922255 -0.0294126 0.0823513 -0.0404427 0.375684 -0.0278811 -0.164405 -0.247515 -0.176963 0.0896205 0.978555 0.0801276 0.0453589 5.86926e-09 5.86929e-09 5.86724e-09 2.18023e-07 2.16548e-07 2.18055e-07 9.38228e-06 9.38237e-06 9.37387e-06 9.38228e-06 9.38237e-06 9.37387e-06 0.0344229 0.034423 0.0344137
1702990812.997361000 0 1 1 1 1 1 -2.41359 -0.317562 0.921411 -0.0304174 0.0810489 -0.0396659 0.380456 -0.025132 -0.165328 -0.245145 -0.187185 0.131821 1.03051 0.248545 0.00371607 5.85835e-09 5.85838e-09 5.85633e-09 2.17268e-07 2.15843e-07 2.17299e-07 9.3627e-06 9.36279e-06 9.3543e-06 9.3627e-06 9.36279e-06 9.3543e-06 0.0340023 0.0340024 0.0339931
1702990813.002352000 0 1 1 1 1 1 -2.41176 -0.317686 0.920582 -0.0316637 0.0798066 -0.0397156 0.382417 -0.0242035 -0.164421 -0.264406 -0.188186 0.0853697 0.913436 0.220103 0.0946201 5.85532e-09 5.85534e-09 5.85329e-09 2.17033e-07 2.15653e-07 2.17064e-07 9.35734e-06 9.35743e-06 9.34895e-06 9.35734e-06 9.35743e-06 9.34895e-06 0.0338839 0.033884 0.0338748
1702990813.007385000 0 1 1 1 1 1 -2.40986 -0.317808 0.91973 -0.0329166 0.078553 -0.0392554 0.38625 -0.0234976 -0.16456 -0.277544 -0.184395 0.107311 0.929171 0.195997 0.11712 5.86653e-09 5.86655e-09 5.8645e-09 2.17716e-07 2.16375e-07 2.17747e-07 9.37741e-06 9.37749e-06 9.369e-06 9.37741e-06 9.37749e-06 9.369e-06 0.0343148 0.0343149 0.0343056
1702990813.012378000 0 1 1 1 1 1 -2.40798 -0.317921 0.918879 -0.0340716 0.0772078 -0.0386208 0.389871 -0.0223767 -0.166611 -0.278169 -0.192939 0.127248 0.959056 0.206255 -0.0631844 5.86413e-09 5.86415e-09 5.86209e-09 2.17518e-07 2.16224e-07 2.1755e-07 9.37323e-06 9.37331e-06 9.3648e-06 9.37323e-06 9.37331e-06 9.3648e-06 0.0342206 0.0342206 0.0342113
1702990813.017386000 0 1 1 1 1 1 -2.40605 -0.318021 0.918044 -0.0353884 0.0758472 -0.0385796 0.393365 -0.0201985 -0.164947 -0.288802 -0.201225 0.090943 0.926028 0.286841 0.0775582 5.86683e-09 5.86685e-09 5.86479e-09 2.17653e-07 2.16403e-07 2.17685e-07 9.37823e-06 9.37831e-06 9.36978e-06 9.37823e-06 9.37831e-06 9.36978e-06 0.0343263 0.0343264 0.034317
1702990813.022346000 0 1 1 1 1 1 -2.40416 -0.318122 0.917227 -0.0367832 0.0746359 -0.0379536 0.395303 -0.0195114 -0.162834 -0.304953 -0.192218 0.124148 0.850046 0.229422 0.274229 5.85324e-09 5.85326e-09 5.85122e-09 2.16733e-07 2.15528e-07 2.16765e-07 9.35393e-06 9.354e-06 9.3455e-06 9.35393e-06 9.354e-06 9.3455e-06 0.0338072 0.0338073 0.033798
1702990813.027404000 0 1 1 1 1 1 -2.40219 -0.318218 0.916361 -0.038167 0.0732406 -0.0375798 0.399986 -0.0183393 -0.164407 -0.316459 -0.195155 0.1135 0.987703 0.248411 0.174177 5.5433e-09 5.54332e-09 5.54149e-09 1.99184e-07 1.98117e-07 1.99214e-07 8.83746e-06 8.83753e-06 8.8295e-06 8.83746e-06 8.83753e-06 8.8295e-06 0.0256744 0.0256745 0.0256652
1702990813.032382000 0 1 1 1 1 1 -2.40024 -0.318293 0.915505 -0.0395613 0.0719514 -0.0372888 0.402465 -0.0155182 -0.167338 -0.316688 -0.19951 0.104489 0.871247 0.358452 -0.123654 5.86533e-09 5.86535e-09 5.86329e-09 2.17426e-07 2.16302e-07 2.17457e-07 9.37561e-06 9.37569e-06 9.36712e-06 9.37561e-06 9.37569e-06 9.36712e-06 0.0342615 0.0342616 0.0342522
1702990813.037385000 0 1 1 1 1 1 -2.39826 -0.31838 0.914703 -0.0410764 0.0706172 -0.0366427 0.40513 -0.0155315 -0.160983 -0.329269 -0.200375 0.130932 0.82606 0.226423 0.432591 5.8663e-09 5.86631e-09 5.86425e-09 2.17456e-07 2.16373e-07 2.17488e-07 9.37756e-06 9.37762e-06 9.36907e-06 9.37756e-06 9.37762e-06 9.36907e-06 0.0343012 0.0343012 0.0342918
1702990813.042362000 0 1 1 1 1 1 -2.39628 -0.318448 0.913844 -0.0425736 0.069229 -0.0363424 0.409873 -0.0136299 -0.164199 -0.338816 -0.206376 0.114269 0.975745 0.29481 0.187357 5.85843e-09 5.85845e-09 5.85639e-09 2.16917e-07 2.15878e-07 2.16948e-07 9.36375e-06 9.36381e-06 9.35529e-06 9.36375e-06 9.36381e-06 9.35529e-06 0.0340007 0.0340008 0.0339915
1702990813.047379000 0 1 1 1 1 1 -2.39427 -0.318497 0.912952 -0.0440556 0.0678467 -0.0359095 0.411144 -0.010469 -0.170182 -0.33901 -0.207971 0.118295 0.771317 0.400159 -0.333056 5.86418e-09 5.8642e-09 5.86213e-09 2.1726e-07 2.16261e-07 2.17291e-07 9.37443e-06 9.3745e-06 9.36593e-06 9.37443e-06 9.3745e-06 9.36593e-06 0.0342235 0.0342235 0.0342141
1702990813.052379000 0 1 1 1 1 1 -2.39225 -0.318565 0.912158 -0.0456559 0.0664466 -0.0353845 0.414506 -0.011076 -0.164018 -0.349662 -0.209793 0.126144 0.846101 0.21817 0.14721 5.86411e-09 5.86413e-09 5.86206e-09 2.17204e-07 2.16246e-07 2.17236e-07 9.37426e-06 9.37432e-06 9.36572e-06 9.37426e-06 9.37432e-06 9.36572e-06 0.0342214 0.0342215 0.034212
1702990813.057349000 0 1 1 1 1 1 -2.39021 -0.318593 0.911333 -0.0473089 0.0649143 -0.0350676 0.419296 -0.00705554 -0.161528 -0.363535 -0.223233 0.114569 0.944786 0.435792 0.404772 5.85394e-09 5.85395e-09 5.85189e-09 2.16498e-07 2.15586e-07 2.16529e-07 9.35599e-06 9.35605e-06 9.34751e-06 9.35599e-06 9.35605e-06 9.34751e-06 0.0338312 0.0338313 0.0338219
1702990813.062349000 0 1 1 1 1 1 -2.38819 -0.318628 0.910456 -0.0489004 0.0634592 -0.0344584 0.419026 -0.00578321 -0.166686 -0.365732 -0.225965 0.13264 0.706317 0.357012 -0.0371551 5.854e-09 5.85401e-09 5.85195e-09 2.16447e-07 2.15576e-07 2.16478e-07 9.35585e-06 9.35591e-06 9.34735e-06 9.35585e-06 9.35591e-06 9.34735e-06 0.0338368 0.0338369 0.0338275
1702990813.067381000 0 1 1 1 1 1 -2.38609 -0.318662 0.909606 -0.0505799 0.0619788 -0.0341106 0.424595 -0.00517052 -0.166458 -0.370371 -0.224925 0.117558 0.914415 0.283859 -0.0444993 5.86485e-09 5.86486e-09 5.86279e-09 2.17098e-07 2.16265e-07 2.1713e-07 9.37506e-06 9.37512e-06 9.36651e-06 9.37506e-06 9.37512e-06 9.36651e-06 0.0342482 0.0342483 0.0342388
1702990813.072381000 0 1 1 1 1 1 -2.38403 -0.318651 0.908775 -0.0522846 0.0603688 -0.0336497 0.425214 0.000103601 -0.164161 -0.380619 -0.23009 0.125189 0.706665 0.54351 0.184096 5.53585e-09 5.53586e-09 5.53402e-09 1.98452e-07 1.9773e-07 1.98483e-07 8.82584e-06 8.82589e-06 8.8178e-06 8.82584e-06 8.82589e-06 8.8178e-06 0.0255741 0.0255742 0.0255648
1702990813.077349000 0 1 1 1 1 1 -2.38195 -0.318677 0.907927 -0.0540912 0.0587884 -0.0330352 0.427149 -0.0013875 -0.165746 -0.392077 -0.245401 0.1377 0.670865 0.237486 0.0608837 5.85404e-09 5.85405e-09 5.85199e-09 2.16312e-07 2.15565e-07 2.16343e-07 9.35539e-06 9.35544e-06 9.34689e-06 9.35539e-06 9.35544e-06 9.34689e-06 0.0338321 0.0338321 0.0338228
1702990813.082399000 0 1 1 1 1 1 -2.37981 -0.318647 0.907061 -0.0558416 0.0571426 -0.0328451 0.433139 0.00393146 -0.167226 -0.397521 -0.249619 0.107387 0.935449 0.565217 -0.0828714 5.54157e-09 5.54158e-09 5.53974e-09 1.98666e-07 1.98018e-07 1.98696e-07 8.83467e-06 8.83472e-06 8.82663e-06 8.83467e-06 8.83472e-06 8.82663e-06 0.0256509 0.025651 0.0256416
1702990813.087369000 0 1 1 1 1 1 -2.37775 -0.318626 0.906242 -0.0576353 0.0556307 -0.0321515 0.430746 0.00587098 -0.164608 -0.402551 -0.243572 0.138688 0.521899 0.466433 0.147929 5.53204e-09 5.53205e-09 5.53021e-09 1.98147e-07 1.97534e-07 1.98177e-07 8.81947e-06 8.81951e-06 8.81143e-06 8.81947e-06 8.81951e-06 8.81143e-06 0.025523 0.025523 0.0255136
1702990813.092387000 0 1 1 1 1 1 -2.37559 -0.318622 0.905395 -0.0595912 0.0540012 -0.0316242 0.435825 0.00421181 -0.164886 -0.415231 -0.254308 0.134602 0.784239 0.186983 0.119487 5.86696e-09 5.86697e-09 5.86489e-09 2.17028e-07 2.16396e-07 2.1706e-07 9.37827e-06 9.37831e-06 9.36972e-06 9.37827e-06 9.37831e-06 9.36972e-06 0.0343272 0.0343272 0.0343178
1702990813.097385000 0 1 1 1 1 1 -2.37345 -0.31853 0.904537 -0.0614743 0.0522719 -0.0314188 0.438996 0.0134678 -0.166449 -0.425488 -0.261329 0.110728 0.766779 0.796722 -0.0219718 5.53709e-09 5.5371e-09 5.53526e-09 1.98334e-07 1.97792e-07 1.98364e-07 8.82745e-06 8.82749e-06 8.8194e-06 8.82745e-06 8.82749e-06 8.8194e-06 0.0255898 0.0255898 0.0255804
1702990813.102386000 0 1 1 1 1 1 -2.37133 -0.318486 0.903714 -0.0634554 0.0507371 -0.030655 0.436384 0.0132018 -0.163783 -0.429696 -0.256695 0.143164 0.377216 0.466844 0.205036 5.86659e-09 5.86661e-09 5.86453e-09 2.16931e-07 2.16373e-07 2.16962e-07 9.37759e-06 9.37762e-06 9.36903e-06 9.37759e-06 9.37762e-06 9.36903e-06 0.0343154 0.0343155 0.0343061
1702990813.107386000 0 1 1 1 1 1 -2.36911 -0.318451 0.902863 -0.0654888 0.049004 -0.0302453 0.445928 0.01115 -0.164121 -0.440194 -0.26531 0.125788 1.00208 0.195169 0.175214 5.86662e-09 5.86663e-09 5.86455e-09 2.16896e-07 2.16375e-07 2.16927e-07 9.37764e-06 9.37767e-06 9.36907e-06 9.37764e-06 9.37767e-06 9.36907e-06 0.0343158 0.0343158 0.0343064
1702990813.112331000 0 1 1 1 1 1 -2.36698 -0.318298 0.902016 -0.0674548 0.0473139 -0.0300176 0.445773 0.0234806 -0.166409 -0.44523 -0.269382 0.106951 0.699886 0.973577 -0.034551 5.84786e-09 5.84787e-09 5.84581e-09 2.15657e-07 2.15174e-07 2.15688e-07 9.34419e-06 9.34422e-06 9.33564e-06 9.34419e-06 9.34422e-06 9.33564e-06 0.0336032 0.0336032 0.0335938
1702990813.117378000 0 1 1 1 1 1 -2.36482 -0.318246 0.901182 -0.0695643 0.0455777 -0.0291659 0.441482 0.0184555 -0.163467 -0.453155 -0.273591 0.14649 0.245818 0.236388 0.216525 5.86384e-09 5.86384e-09 5.86177e-09 2.16651e-07 2.16201e-07 2.16682e-07 9.37278e-06 9.3728e-06 9.3642e-06 9.37278e-06 9.3728e-06 9.3642e-06 0.0342078 0.0342078 0.0341984
1702990813.122383000 0 1 1 1 1 1 -2.36255 -0.318114 0.900332 -0.0716094 0.0436937 -0.0290122 0.454974 0.0245649 -0.164056 -0.459075 -0.286022 0.103582 1.2091 0.694867 0.153347 5.53643e-09 5.53644e-09 5.5346e-09 1.98149e-07 1.97771e-07 1.98179e-07 8.82666e-06 8.82669e-06 8.81857e-06 8.82666e-06 8.82669e-06 8.81857e-06 0.0255812 0.0255812 0.0255718
1702990813.127351000 0 1 1 1 1 1 -2.3604 -0.31793 0.899481 -0.0737477 0.0421087 -0.028562 0.449038 0.0347827 -0.166266 -0.465295 -0.275187 0.110745 0.394543 1.16763 -0.0128327 5.85456e-09 5.85457e-09 5.8525e-09 2.15995e-07 2.15612e-07 2.16025e-07 9.35642e-06 9.35644e-06 9.34786e-06 9.35642e-06 9.35644e-06 9.34786e-06 0.0338479 0.033848 0.0338386
1702990813.132339000 0 1 1 1 1 1 -2.35823 -0.317875 0.898659 -0.0758965 0.0402918 -0.0277903 0.447972 0.02456 -0.164185 -0.471931 -0.284492 0.139065 0.351776 0.0392227 0.132709 5.8504e-09 5.85041e-09 5.84834e-09 2.1569e-07 2.1534e-07 2.15721e-07 9.34896e-06 9.34897e-06 9.34039e-06 9.34896e-06 9.34897e-06 9.34039e-06 0.0336937 0.0336937 0.0336843
1702990813.137367000 0 1 1 1 1 1 -2.3559 -0.317672 0.897809 -0.078035 0.0383421 -0.0276378 0.462446 0.0343948 -0.164313 -0.474433 -0.301163 0.100748 1.27564 0.77953 0.0930596 5.85987e-09 5.85988e-09 5.8578e-09 2.16258e-07 2.15939e-07 2.16289e-07 9.36578e-06 9.3658e-06 9.35717e-06 9.36578e-06 9.3658e-06 9.35717e-06 0.0340554 0.0340554 0.0340459
1702990813.142357000 0 1 1 1 1 1 -2.35378 -0.317444 0.896977 -0.0801775 0.0366517 -0.0271013 0.450598 0.043652 -0.163582 -0.477927 -0.290488 0.117083 0.0872051 1.08282 0.193441 5.85649e-09 5.85649e-09 5.85442e-09 2.16011e-07 2.15721e-07 2.16042e-07 9.35964e-06 9.35965e-06 9.35109e-06 9.35964e-06 9.35965e-06 9.35109e-06 0.0339253 0.0339253 0.033916
1702990813.147357000 0 1 1 1 1 1 -2.35151 -0.317357 0.896128 -0.0824352 0.0347928 -0.0265021 0.455529 0.0313386 -0.164114 -0.486622 -0.294247 0.125772 0.53578 -0.147688 0.136852 5.8567e-09 5.8567e-09 5.85463e-09 2.16005e-07 2.15743e-07 2.16035e-07 9.36014e-06 9.36014e-06 9.35155e-06 9.36014e-06 9.36014e-06 9.35155e-06 0.0339558 0.0339558 0.0339464
1702990813.152351000 0 1 1 1 1 1 -2.34922 -0.317054 0.895274 -0.0846358 0.0328469 -0.0263279 0.465925 0.0485219 -0.16678 -0.491876 -0.306497 0.0967443 1.10561 1.13995 -0.145232 5.85482e-09 5.85482e-09 5.85275e-09 2.1586e-07 2.15627e-07 2.15891e-07 9.35684e-06 9.35685e-06 9.34823e-06 9.35684e-06 9.35685e-06 9.34823e-06 0.0338809 0.0338809 0.0338714
1702990813.157356000 0 1 1 1 1 1 -2.34706 -0.316807 0.894468 -0.086958 0.031074 -0.025742 0.451834 0.0525757 -0.161099 -0.501623 -0.300795 0.116442 -0.214935 0.938767 0.379808 5.85668e-09 5.85669e-09 5.85461e-09 2.15963e-07 2.15754e-07 2.15993e-07 9.36025e-06 9.36024e-06 9.35167e-06 9.36025e-06 9.36024e-06 9.35167e-06 0.0339465 0.0339465 0.0339372
1702990813.162337000 0 1 1 1 1 1 -2.34476 -0.316654 0.893632 -0.0892434 0.0292161 -0.0253507 0.463253 0.0430565 -0.161389 -0.504454 -0.302613 0.106656 0.822697 0.0257857 0.339639 5.85034e-09 5.85034e-09 5.84827e-09 2.15542e-07 2.15358e-07 2.15572e-07 9.34911e-06 9.3491e-06 9.34053e-06 9.34911e-06 9.3491e-06 9.34053e-06 0.0337049 0.0337049 0.0336955
1702990813.167338000 0 1 1 1 1 1 -2.34245 -0.316268 0.892718 -0.091524 0.0273282 -0.0250834 0.468956 0.0637177 -0.171184 -0.506514 -0.305106 0.0929182 0.91506 1.48309 -0.484054 5.85067e-09 5.85067e-09 5.8486e-09 2.15547e-07 2.15386e-07 2.15577e-07 9.34993e-06 9.34993e-06 9.34134e-06 9.34993e-06 9.34993e-06 9.34134e-06 0.0337162 0.0337162 0.0337068
1702990813.172385000 0 1 1 1 1 1 -2.34027 -0.316048 0.891894 -0.0939199 0.0254766 -0.0245498 0.455138 0.0556158 -0.167073 -0.519533 -0.302404 0.106669 -0.218629 0.225785 -0.125876 5.53752e-09 5.53752e-09 5.53568e-09 1.97964e-07 1.97835e-07 1.97993e-07 8.82868e-06 8.82866e-06 8.82059e-06 8.82868e-06 8.82866e-06 8.82059e-06 0.0255985 0.0255984 0.0255891
1702990813.177395000 0 1 1 1 1 1 -2.33788 -0.315768 0.891117 -0.0961825 0.0236937 -0.0243003 0.47119 0.0562105 -0.158138 -0.508328 -0.301184 0.0874825 1.10032 0.223614 0.620476 5.87019e-09 5.87019e-09 5.86811e-09 2.16748e-07 2.16626e-07 2.16779e-07 9.38468e-06 9.38467e-06 9.37608e-06 9.38468e-06 9.38467e-06 9.37608e-06 0.0344607 0.0344606 0.0344513
1702990813.182322000 0 1 1 1 1 1 -2.33567 -0.315321 0.890229 -0.0984504 0.0220028 -0.023917 0.468007 0.0775533 -0.166871 -0.511051 -0.291187 0.0919979 0.521774 1.61387 -0.0983534 5.84541e-09 5.84541e-09 5.84334e-09 2.15137e-07 2.15032e-07 2.15166e-07 9.34034e-06 9.34033e-06 9.3318e-06 9.34034e-06 9.34033e-06 9.3318e-06 0.0335155 0.0335155 0.0335062
1702990813.187383000 0 1 1 1 1 1 -2.33342 -0.315064 0.889389 -0.100927 0.0202112 -0.0235691 0.460944 0.065981 -0.165099 -0.526434 -0.28832 0.0859621 0.0693572 0.120709 0.0216674 5.53699e-09 5.53698e-09 5.53514e-09 1.97876e-07 1.97795e-07 1.97905e-07 8.82769e-06 8.82765e-06 8.81958e-06 8.82769e-06 8.82765e-06 8.81958e-06 0.0255895 0.0255895 0.0255801
1702990813.192382000 0 1 1 1 1 1 -2.33104 -0.314675 0.888588 -0.103292 0.0185201 -0.0233522 0.475366 0.0735107 -0.160471 -0.52318 -0.28575 0.073131 1.14743 0.670479 0.341309 5.86588e-09 5.86588e-09 5.8638e-09 2.16413e-07 2.16338e-07 2.16444e-07 9.37684e-06 9.37681e-06 9.36818e-06 9.37684e-06 9.37681e-06 9.36818e-06 0.0342888 0.0342888 0.0342792
1702990813.197382000 0 1 1 1 1 1 -2.32879 -0.314166 0.887723 -0.105627 0.0169252 -0.022863 0.467059 0.0925594 -0.163517 -0.519459 -0.273879 0.0904075 0.158252 1.72283 0.153883 5.86586e-09 5.86585e-09 5.86378e-09 2.16401e-07 2.16339e-07 2.16431e-07 9.37677e-06 9.37674e-06 9.36818e-06 9.37677e-06 9.37674e-06 9.36818e-06 0.0342865 0.0342865 0.0342772
1702990813.202361000 0 1 1 1 1 1 -2.32655 -0.313862 0.886886 -0.108126 0.0153138 -0.0226633 0.463455 0.0798199 -0.164528 -0.532244 -0.269927 0.0724032 0.0408823 0.232935 0.0331409 5.85877e-09 5.85877e-09 5.8567e-09 2.15929e-07 2.15878e-07 2.15959e-07 9.36403e-06 9.36398e-06 9.35542e-06 9.36403e-06 9.36398e-06 9.35542e-06 0.0340156 0.0340155 0.0340062
1702990813.207359000 0 1 1 1 1 1 -2.32413 -0.313371 0.886054 -0.11046 0.0136946 -0.0224604 0.479364 0.0916385 -0.163556 -0.528822 -0.263835 0.0648552 1.17479 1.04744 0.0642176 5.8581e-09 5.85809e-09 5.85601e-09 2.15877e-07 2.15835e-07 2.15907e-07 9.36288e-06 9.36285e-06 9.35423e-06 9.36288e-06 9.36285e-06 9.35423e-06 0.0339876 0.0339876 0.033978
1702990813.212372000 0 1 1 1 1 1 -2.32192 -0.312841 0.885225 -0.112725 0.0122103 -0.0219304 0.465974 0.103744 -0.162558 -0.518433 -0.25332 0.0858072 -0.0884027 1.45141 0.191971 5.86251e-09 5.8625e-09 5.86043e-09 2.16158e-07 2.16125e-07 2.16187e-07 9.37084e-06 9.37079e-06 9.36224e-06 9.37084e-06 9.37079e-06 9.36224e-06 0.0341574 0.0341573 0.034148
1702990813.217379000 0 1 1 1 1 1 -2.31959 -0.312448 0.884391 -0.115111 0.0106052 -0.0219136 0.469223 0.0932063 -0.161672 -0.519111 -0.257588 0.0523106 0.304507 0.218857 0.250377 5.8649e-09 5.86488e-09 5.86281e-09 2.163e-07 2.16275e-07 2.16331e-07 9.37509e-06 9.37503e-06 9.36646e-06 9.37509e-06 9.37503e-06 9.36646e-06 0.0342484 0.0342484 0.034239
1702990813.222369000 0 1 1 1 1 1 -2.31723 -0.311851 0.883543 -0.117311 0.00920516 -0.0215808 0.478238 0.109951 -0.164484 -0.510874 -0.240122 0.0647083 0.871711 1.34815 -0.038594 5.86145e-09 5.86144e-09 5.85937e-09 2.16074e-07 2.16055e-07 2.16105e-07 9.36901e-06 9.36896e-06 9.36036e-06 9.36901e-06 9.36896e-06 9.36036e-06 0.0341166 0.0341165 0.0341071
1702990813.227403000 0 1 1 1 1 1 -2.315 -0.31131 0.882708 -0.119462 0.00773628 -0.0211596 0.46582 0.11237 -0.163174 -0.502124 -0.232552 0.0708132 -0.203576 0.906309 0.118994 5.54346e-09 5.54345e-09 5.54161e-09 1.9814e-07 1.98128e-07 1.9817e-07 8.8381e-06 8.83804e-06 8.82998e-06 8.8381e-06 8.83804e-06 8.82998e-06 0.0256753 0.0256752 0.0256659
1702990813.232362000 0 1 1 1 1 1 -2.31265 -0.310787 0.8819 -0.121578 0.00620688 -0.0211728 0.473539 0.111086 -0.160798 -0.48639 -0.243987 0.0404188 0.517203 0.517176 0.265662 5.85936e-09 5.85934e-09 5.85727e-09 2.15937e-07 2.15928e-07 2.15968e-07 9.3654e-06 9.36534e-06 9.35676e-06 9.3654e-06 9.36534e-06 9.35676e-06 0.0340582 0.0340581 0.0340487
1702990813.237356000 0 1 1 1 1 1 -2.31029 -0.310104 0.881056 -0.123677 0.00493163 -0.0206729 0.477497 0.128081 -0.161982 -0.481243 -0.222564 0.0713483 0.619496 1.53975 0.162813 5.85749e-09 5.85748e-09 5.85541e-09 2.15819e-07 2.15813e-07 2.1585e-07 9.36214e-06 9.36208e-06 9.3535e-06 9.36214e-06 9.36208e-06 9.3535e-06 0.0339839 0.0339839 0.0339745
1702990813.242374000 0 1 1 1 1 1 -2.30804 -0.309509 0.88022 -0.125725 0.00360063 -0.0203494 0.468477 0.128095 -0.16241 -0.473682 -0.215782 0.0658302 -0.088317 0.96792 0.1332 5.86375e-09 5.86374e-09 5.86166e-09 2.16225e-07 2.16222e-07 2.16256e-07 9.37344e-06 9.37335e-06 9.36481e-06 9.37344e-06 9.37335e-06 9.36481e-06 0.0342189 0.0342187 0.0342095
1702990813.247338000 0 1 1 1 1 1 -2.30567 -0.308884 0.879387 -0.127653 0.00210307 -0.0204301 0.476824 0.129708 -0.163137 -0.457883 -0.22676 0.0335686 0.603332 0.775417 0.00701977 5.85168e-09 5.85166e-09 5.84959e-09 2.1545e-07 2.15449e-07 2.15481e-07 9.35197e-06 9.35189e-06 9.3433e-06 9.35197e-06 9.35189e-06 9.3433e-06 0.0337562 0.0337561 0.0337466
1702990813.252340000 0 1 1 1 1 1 -2.30337 -0.308146 0.878579 -0.129609 0.000911078 -0.0197665 0.474604 0.143516 -0.160578 -0.451868 -0.208769 0.0794261 0.305614 1.45436 0.201952 5.85244e-09 5.85242e-09 5.85035e-09 2.15499e-07 2.15499e-07 2.1553e-07 9.3534e-06 9.35332e-06 9.34473e-06 9.3534e-06 9.35332e-06 9.34473e-06 0.0337814 0.0337813 0.0337718
1702990813.257365000 0 1 1 1 1 1 -2.30105 -0.307464 0.877751 -0.131578 -0.000361444 -0.0196425 0.471369 0.143557 -0.15905 -0.447901 -0.2023 0.0524199 0.0595909 0.932618 0.371748 5.86096e-09 5.86094e-09 5.85887e-09 2.16044e-07 2.16044e-07 2.16075e-07 9.36861e-06 9.36852e-06 9.35997e-06 9.36861e-06 9.36852e-06 9.35997e-06 0.0341042 0.0341041 0.0340948
1702990813.262318000 0 1 1 1 1 1 -2.29872 -0.306733 0.876899 -0.13338 -0.00169176 -0.0196065 0.476197 0.149599 -0.163923 -0.435114 -0.203672 0.0379048 0.470631 1.06486 -0.0912402 5.84502e-09 5.84501e-09 5.84294e-09 2.15022e-07 2.15021e-07 2.15053e-07 9.34021e-06 9.34013e-06 9.33156e-06 9.34021e-06 9.34013e-06 9.33156e-06 0.0334996 0.0334995 0.0334901
1702990813.267351000 0 1 1 1 1 1 -2.29639 -0.30593 0.876075 -0.135262 -0.00284955 -0.0189162 0.473396 0.159025 -0.162008 -0.429968 -0.19182 0.082169 0.151449 1.31572 0.0495696 5.85627e-09 5.85625e-09 5.85418e-09 2.15738e-07 2.15736e-07 2.15769e-07 9.36026e-06 9.36016e-06 9.35157e-06 9.36026e-06 9.36016e-06 9.35157e-06 0.0339216 0.0339215 0.033912
1702990813.272357000 0 1 1 1 1 1 -2.29407 -0.305156 0.875279 -0.137056 -0.00402368 -0.0190051 0.473341 0.161709 -0.157707 -0.421177 -0.187138 0.0366105 0.213838 1.07324 0.422824 5.85836e-09 5.85834e-09 5.85627e-09 2.15871e-07 2.15867e-07 2.15902e-07 9.36393e-06 9.36383e-06 9.35527e-06 9.36393e-06 9.36383e-06 9.35527e-06 0.0339991 0.033999 0.0339896
1702990813.277406000 0 1 1 1 1 1 -2.29173 -0.304305 0.874423 -0.138751 -0.00516024 -0.0186904 0.473506 0.169807 -0.159971 -0.408702 -0.172808 0.0560338 0.222467 1.28563 0.267133 5.54533e-09 5.54531e-09 5.54347e-09 1.98235e-07 1.9823e-07 1.98265e-07 8.84141e-06 8.84131e-06 8.83326e-06 8.84141e-06 8.84131e-06 8.83326e-06 0.0257023 0.0257022 0.0256929
1702990813.282353000 0 1 1 1 1 1 -2.28943 -0.303468 0.873583 -0.140521 -0.00613957 -0.0181947 0.472869 0.173947 -0.1636 -0.403936 -0.163641 0.0737435 0.168698 1.1185 -0.105472 5.85704e-09 5.85702e-09 5.85495e-09 2.15787e-07 2.15779e-07 2.15818e-07 9.36153e-06 9.36142e-06 9.35285e-06 9.36153e-06 9.36142e-06 9.35285e-06 0.0339468 0.0339467 0.0339373
1702990813.287350000 0 1 1 1 1 1 -2.28708 -0.302562 0.872793 -0.142163 -0.00720454 -0.0183486 0.474551 0.182009 -0.157902 -0.392938 -0.16188 0.0270957 0.280362 1.30171 0.375643 5.85604e-09 5.85602e-09 5.85395e-09 2.15723e-07 2.15712e-07 2.15755e-07 9.35967e-06 9.35957e-06 9.35101e-06 9.35967e-06 9.35957e-06 9.35101e-06 0.0339072 0.0339071 0.0338977
1702990813.292377000 0 1 1 1 1 1 -2.28478 -0.301643 0.871954 -0.143767 -0.00808392 -0.0179272 0.47112 0.187803 -0.159345 -0.381297 -0.143885 0.0556456 0.044924 1.2601 0.285173 5.86525e-09 5.86522e-09 5.86315e-09 2.1632e-07 2.16306e-07 2.16351e-07 9.37613e-06 9.37601e-06 9.3675e-06 9.37613e-06 9.37601e-06 9.3675e-06 0.03426 0.0342598 0.0342506
1702990813.297355000 0 1 1 1 1 1 -2.28244 -0.300716 0.87109 -0.145399 -0.00892652 -0.0175052 0.47399 0.190861 -0.164626 -0.378737 -0.131494 0.0650421 0.303262 1.03724 -0.180382 5.85776e-09 5.85773e-09 5.85567e-09 2.15841e-07 2.15824e-07 2.15873e-07 9.36276e-06 9.36265e-06 9.35411e-06 9.36276e-06 9.36265e-06 9.35411e-06 0.0339717 0.0339716 0.0339622
1702990813.302362000 0 1 1 1 1 1 -2.28014 -0.2997 0.870284 -0.14689 -0.00978019 -0.0176464 0.472643 0.202331 -0.162262 -0.366986 -0.124969 0.0258894 0.181044 1.47095 -0.0197353 5.86015e-09 5.86012e-09 5.85806e-09 2.15998e-07 2.15977e-07 2.1603e-07 9.36707e-06 9.36695e-06 9.3584e-06 9.36707e-06 9.36695e-06 9.3584e-06 0.034064 0.0340638 0.0340545
1702990813.307375000 0 1 1 1 1 1 -2.27783 -0.298699 0.86949 -0.148367 -0.0104804 -0.0171134 0.468524 0.205478 -0.156776 -0.353909 -0.107707 0.0632713 -0.0986541 1.15401 0.481812 5.86456e-09 5.86453e-09 5.86247e-09 2.16283e-07 2.1626e-07 2.16314e-07 9.37489e-06 9.37476e-06 9.36626e-06 9.37489e-06 9.37476e-06 9.36626e-06 0.0342326 0.0342325 0.0342232
1702990813.312362000 0 1 1 1 1 1 -2.27549 -0.297668 0.868645 -0.149844 -0.0112181 -0.0169145 0.474484 0.211319 -0.160403 -0.347916 -0.10275 0.0498412 0.450423 1.2233 0.153638 5.86015e-09 5.86012e-09 5.85806e-09 2.15999e-07 2.15972e-07 2.16031e-07 9.36693e-06 9.36681e-06 9.35829e-06 9.36693e-06 9.36681e-06 9.35829e-06 0.0340638 0.0340637 0.0340544
1702990813.317363000 0 1 1 1 1 1 -2.2732 -0.296537 0.867784 -0.151302 -0.0118662 -0.0169482 0.469715 0.22398 -0.164899 -0.345922 -0.0909236 0.0271833 -0.0184471 1.6452 -0.222927 5.86052e-09 5.86049e-09 5.85843e-09 2.16029e-07 2.15999e-07 2.1606e-07 9.36765e-06 9.36752e-06 9.35901e-06 9.36765e-06 9.36752e-06 9.35901e-06 0.0340769 0.0340768 0.0340675
1702990813.322344000 0 1 1 1 1 1 -2.27093 -0.295494 0.867005 -0.152608 -0.0124282 -0.0163963 0.467106 0.22167 -0.159374 -0.33047 -0.0762162 0.0630593 -0.04531 0.916452 0.221558 5.85408e-09 5.85405e-09 5.852e-09 2.15622e-07 2.15589e-07 2.15654e-07 9.35623e-06 9.35608e-06 9.34759e-06 9.35623e-06 9.35608e-06 9.34759e-06 0.033833 0.0338328 0.0338235
1702990813.327390000 0 1 1 1 1 1 -2.26856 -0.294294 0.866161 -0.153833 -0.0130726 -0.0164059 0.473333 0.235411 -0.160648 -0.314023 -0.0704801 0.0313837 0.451383 1.64975 0.100169 5.54027e-09 5.54025e-09 5.53842e-09 1.98009e-07 1.97975e-07 1.98039e-07 8.83346e-06 8.83333e-06 8.8253e-06 8.83346e-06 8.83333e-06 8.8253e-06 0.0256318 0.0256317 0.0256223
1702990813.332373000 0 1 1 1 1 1 -2.26631 -0.293102 0.865331 -0.155257 -0.0135063 -0.0162334 0.464665 0.243668 -0.162066 -0.317427 -0.0592501 0.0347606 -0.282096 1.62691 0.0240667 5.86379e-09 5.86375e-09 5.8617e-09 2.16253e-07 2.16214e-07 2.16284e-07 9.37361e-06 9.37346e-06 9.365e-06 9.37361e-06 9.37346e-06 9.365e-06 0.0341968 0.0341966 0.0341875
1702990813.337368000 0 1 1 1 1 1 -2.26399 -0.291965 0.864513 -0.156537 -0.0138652 -0.015811 0.467345 0.23899 -0.160692 -0.310742 -0.0397224 0.0548291 0.116689 0.728912 0.116358 5.86205e-09 5.86202e-09 5.85997e-09 2.16138e-07 2.16096e-07 2.16169e-07 9.37047e-06 9.37033e-06 9.36184e-06 9.37047e-06 9.37033e-06 9.36184e-06 0.0341303 0.0341301 0.0341208
1702990813.342392000 0 1 1 1 1 1 -2.26165 -0.290623 0.863664 -0.15757 -0.0143644 -0.0159271 0.471223 0.259277 -0.163577 -0.288523 -0.0356475 0.019747 0.349057 1.95625 -0.168892 5.54074e-09 5.54071e-09 5.53888e-09 1.9803e-07 1.97989e-07 1.98061e-07 8.83412e-06 8.83399e-06 8.82596e-06 8.83412e-06 8.83399e-06 8.82596e-06 0.0256367 0.0256365 0.0256272
1702990813.347354000 0 1 1 1 1 1 -2.25945 -0.289362 0.862882 -0.158858 -0.0146865 -0.0156104 0.459605 0.263181 -0.158621 -0.290644 -0.0308409 0.041184 -0.547077 1.51363 0.297204 5.8572e-09 5.85716e-09 5.85512e-09 2.15821e-07 2.15775e-07 2.15852e-07 9.3616e-06 9.36143e-06 9.35298e-06 9.3616e-06 9.36143e-06 9.35298e-06 0.0339475 0.0339473 0.0339381
1702990813.352379000 0 1 1 1 1 1 -2.2571 -0.288119 0.862062 -0.160001 -0.0149478 -0.0153952 0.46838 0.260096 -0.158297 -0.282462 -0.0171748 0.0400629 0.397635 0.853535 0.27863 5.86574e-09 5.8657e-09 5.86365e-09 2.16372e-07 2.16324e-07 2.16403e-07 9.37684e-06 9.37669e-06 9.36819e-06 9.37684e-06 9.37669e-06 9.36819e-06 0.0342758 0.0342757 0.0342664
1702990813.357356000 0 1 1 1 1 1 -2.25479 -0.286667 0.86119 -0.160935 -0.0152044 -0.0154694 0.470043 0.281442 -0.165382 -0.261543 -0.00693957 0.0176908 0.363492 2.04661 -0.324499 5.85791e-09 5.85787e-09 5.85582e-09 2.15868e-07 2.15819e-07 2.159e-07 9.36278e-06 9.36263e-06 9.35412e-06 9.36278e-06 9.36263e-06 9.35412e-06 0.0339747 0.0339745 0.0339652
1702990813.362406000 0 1 1 1 1 1 -2.25257 -0.285339 0.860381 -0.161933 -0.0153822 -0.0151418 0.457787 0.276818 -0.161501 -0.253826 0.00750067 0.0405269 -0.45927 0.872996 0.0399445 5.54516e-09 5.54513e-09 5.5433e-09 1.98257e-07 1.98211e-07 1.98288e-07 8.84093e-06 8.84077e-06 8.83279e-06 8.84093e-06 8.84077e-06 8.83279e-06 0.025698 0.0256978 0.0256886
1702990813.367365000 0 1 1 1 1 1 -2.25022 -0.283941 0.859607 -0.162892 -0.0155303 -0.0151613 0.470356 0.282971 -0.155962 -0.242829 0.00995065 0.0197636 0.686427 1.04454 0.479902 5.86087e-09 5.86083e-09 5.85878e-09 2.16067e-07 2.16015e-07 2.16098e-07 9.36809e-06 9.36794e-06 9.35945e-06 9.36809e-06 9.36794e-06 9.35945e-06 0.0340888 0.0340886 0.0340793
1702990813.372370000 0 1 1 1 1 1 -2.24798 -0.282387 0.858729 -0.163672 -0.0155195 -0.0151797 0.464051 0.304056 -0.16382 -0.225649 0.0299883 0.0126245 0.0380218 2.13368 -0.15437 5.86259e-09 5.86255e-09 5.86051e-09 2.16166e-07 2.16115e-07 2.16197e-07 9.37087e-06 9.3707e-06 9.36225e-06 9.37087e-06 9.3707e-06 9.36225e-06 0.0341732 0.034173 0.0341638
1702990813.377374000 0 1 1 1 1 1 -2.24576 -0.280974 0.85791 -0.164568 -0.0155106 -0.0149089 0.455305 0.297448 -0.1621 -0.222515 0.0398558 0.0304855 -0.467302 0.854998 0.00172987 5.86395e-09 5.86391e-09 5.86186e-09 2.16239e-07 2.16188e-07 2.16271e-07 9.37286e-06 9.37268e-06 9.36425e-06 9.37286e-06 9.37268e-06 9.36425e-06 0.0342339 0.0342337 0.0342246
1702990813.382344000 0 1 1 1 1 1 -2.24342 -0.279441 0.85712 -0.165256 -0.0155771 -0.0150869 0.469581 0.308236 -0.158547 -0.206254 0.0393494 0.0022389 0.770348 1.40765 0.235156 5.85382e-09 5.85378e-09 5.85174e-09 2.1558e-07 2.15528e-07 2.15612e-07 9.3544e-06 9.35424e-06 9.34575e-06 9.3544e-06 9.35424e-06 9.34575e-06 0.0338418 0.0338416 0.0338322
1702990813.387318000 0 1 1 1 1 1 -2.24122 -0.277788 0.856274 -0.165946 -0.0153561 -0.0149827 0.458458 0.327075 -0.161311 -0.194675 0.0629934 0.0141752 -0.284027 2.18526 0.094934 5.84499e-09 5.84495e-09 5.84292e-09 2.15015e-07 2.14966e-07 2.15046e-07 9.33843e-06 9.33825e-06 9.32987e-06 9.33843e-06 9.33825e-06 9.32987e-06 0.0335041 0.0335038 0.0334948
1702990813.392345000 0 1 1 1 1 1 -2.23897 -0.276298 0.85545 -0.166726 -0.0152017 -0.0148777 0.456504 0.317293 -0.160667 -0.193663 0.0717014 0.0156138 -0.137449 0.766477 0.140274 5.85416e-09 5.85412e-09 5.85208e-09 2.156e-07 2.1555e-07 2.15631e-07 9.35466e-06 9.35447e-06 9.34608e-06 9.35466e-06 9.35447e-06 9.34608e-06 0.0338407 0.0338404 0.0338313
1702990813.397391000 0 1 1 1 1 1 -2.23663 -0.274565 0.854594 -0.167243 -0.0150867 -0.015103 0.465929 0.33679 -0.1637 -0.177269 0.0793339 -0.007321 0.57625 1.97747 -0.175212 5.54043e-09 5.54039e-09 5.53858e-09 1.97994e-07 1.97949e-07 1.98024e-07 8.83225e-06 8.83209e-06 8.82411e-06 8.83225e-06 8.83209e-06 8.82411e-06 0.0256364 0.0256362 0.0256269
1702990813.402412000 0 1 1 1 1 1 -2.23444 -0.272875 0.853777 -0.167866 -0.014774 -0.014868 0.451571 0.342501 -0.160969 -0.170631 0.0930044 0.0209364 -0.648796 1.55871 0.139451 5.54703e-09 5.54699e-09 5.54517e-09 1.98338e-07 1.98295e-07 1.98368e-07 8.84293e-06 8.84275e-06 8.83482e-06 8.84293e-06 8.84275e-06 8.83482e-06 0.0257266 0.0257263 0.0257172
1702990813.407366000 0 1 1 1 1 1 -2.23216 -0.271253 0.852987 -0.168501 -0.0145058 -0.0149593 0.458764 0.338786 -0.15723 -0.164258 0.0950901 0.00323646 0.194842 0.763657 0.436843 5.86118e-09 5.86113e-09 5.8591e-09 2.16076e-07 2.16031e-07 2.16107e-07 9.36787e-06 9.36768e-06 9.35927e-06 9.36787e-06 9.36768e-06 9.35927e-06 0.0341049 0.0341047 0.0340955
1702990813.412343000 0 1 1 1 1 1 -2.22988 -0.269427 0.852122 -0.168911 -0.014225 -0.0151467 0.463988 0.359486 -0.163769 -0.149215 0.102202 -0.0100781 0.520929 1.98359 -0.153225 5.85331e-09 5.85327e-09 5.85123e-09 2.15583e-07 2.15539e-07 2.15614e-07 9.35425e-06 9.35407e-06 9.34562e-06 9.35425e-06 9.35407e-06 9.34562e-06 0.0338069 0.0338067 0.0337974
1702990813.417371000 0 1 1 1 1 1 -2.22771 -0.267632 0.851295 -0.169332 -0.0137941 -0.0149019 0.449995 0.364036 -0.162459 -0.13738 0.11581 0.017931 -0.573082 1.51075 0.00255519 5.86278e-09 5.86273e-09 5.8607e-09 2.16202e-07 2.16162e-07 2.16233e-07 9.37161e-06 9.3714e-06 9.363e-06 9.37161e-06 9.3714e-06 9.363e-06 0.0341714 0.0341711 0.034162
1702990813.422370000 0 1 1 1 1 1 -2.2254 -0.265873 0.85051 -0.169689 -0.013537 -0.0151365 0.460287 0.36356 -0.157139 -0.12366 0.111194 -0.00966292 0.47307 1.04841 0.405796 5.86238e-09 5.86233e-09 5.86029e-09 2.1619e-07 2.16151e-07 2.16222e-07 9.37141e-06 9.37122e-06 9.36277e-06 9.37141e-06 9.37122e-06 9.36277e-06 0.0341593 0.0341591 0.0341498
1702990813.427368000 0 1 1 1 1 1 -2.22314 -0.263906 0.849643 -0.170062 -0.0131226 -0.0151992 0.459804 0.384666 -0.162314 -0.121421 0.121352 -0.00559142 0.262975 2.15303 0.0069431 5.86167e-09 5.86162e-09 5.85959e-09 2.16139e-07 2.16102e-07 2.1617e-07 9.37026e-06 9.37008e-06 9.36164e-06 9.37026e-06 9.37008e-06 9.36164e-06 0.0341316 0.0341314 0.0341222
1702990813.432394000 0 1 1 1 1 1 -2.22097 -0.262069 0.848812 -0.17039 -0.0126352 -0.0150514 0.450132 0.381876 -0.16261 -0.114384 0.132107 0.010361 -0.349457 1.18651 -0.00648103 5.87047e-09 5.87043e-09 5.86839e-09 2.16695e-07 2.16662e-07 2.16727e-07 9.38605e-06 9.38585e-06 9.37743e-06 9.38605e-06 9.38585e-06 9.37743e-06 0.0344615 0.0344613 0.0344521
1702990813.437394000 0 1 1 1 1 1 -2.21866 -0.260125 0.847984 -0.170553 -0.0123702 -0.0153401 0.460754 0.390977 -0.162312 -0.0983159 0.127595 -0.0166587 0.614277 1.52209 -0.0437257 5.54096e-09 5.54092e-09 5.5391e-09 1.98046e-07 1.98016e-07 1.98077e-07 8.83497e-06 8.83479e-06 8.8268e-06 8.83497e-06 8.83479e-06 8.8268e-06 0.0256409 0.0256408 0.0256314
1702990813.442368000 0 1 1 1 1 1 -2.21647 -0.258108 0.847176 -0.170881 -0.0119112 -0.0152514 0.454354 0.405452 -0.160391 -0.0967735 0.130661 0.00243725 -0.0311827 2.00341 0.170826 5.86159e-09 5.86154e-09 5.8595e-09 2.16106e-07 2.16076e-07 2.16137e-07 9.37008e-06 9.36989e-06 9.36146e-06 9.37008e-06 9.36989e-06 9.36146e-06 0.0341172 0.034117 0.0341078
1702990813.447358000 0 1 1 1 1 1 -2.21425 -0.256162 0.846339 -0.17118 -0.0114652 -0.0152268 0.451211 0.402203 -0.161174 -0.0974012 0.133899 0.00471484 -0.135262 1.05087 0.136687 5.85814e-09 5.8581e-09 5.85606e-09 2.15876e-07 2.15849e-07 2.15908e-07 9.36381e-06 9.36361e-06 9.35521e-06 9.36381e-06 9.36361e-06 9.35521e-06 0.0339842 0.033984 0.0339749
1702990813.452385000 0 1 1 1 1 1 -2.21196 -0.254084 0.8455 -0.1713 -0.0110296 -0.0154507 0.459081 0.414024 -0.162811 -0.0819853 0.138449 -0.0128014 0.526942 1.56278 -0.0638707 5.86736e-09 5.86731e-09 5.86527e-09 2.16464e-07 2.16438e-07 2.16496e-07 9.38023e-06 9.38004e-06 9.37156e-06 9.38023e-06 9.38004e-06 9.37156e-06 0.0343386 0.0343385 0.0343291
1702990813.457404000 0 1 1 1 1 1 -2.20978 -0.251974 0.844667 -0.171479 -0.0105789 -0.015331 0.450332 0.423192 -0.162267 -0.0793572 0.146021 0.00745503 -0.206839 1.56946 0.0178521 5.54417e-09 5.54412e-09 5.54231e-09 1.98191e-07 1.9817e-07 1.98222e-07 8.83984e-06 8.83965e-06 8.8317e-06 8.83984e-06 8.83965e-06 8.8317e-06 0.0256847 0.0256845 0.0256753
1702990813.462361000 0 1 1 1 1 1 -2.20755 -0.249904 0.843869 -0.171729 -0.0101743 -0.0154136 0.453196 0.425287 -0.159222 -0.0786773 0.136206 -0.00179527 0.155092 1.18192 0.293168 5.85926e-09 5.85921e-09 5.85718e-09 2.15942e-07 2.15921e-07 2.15974e-07 9.36568e-06 9.36548e-06 9.35707e-06 9.36568e-06 9.36548e-06 9.35707e-06 0.0340273 0.034027 0.0340179
1702990813.467427000 0 1 1 1 1 1 -2.20528 -0.247671 0.843005 -0.171761 -0.00973574 -0.0154927 0.454788 0.439373 -0.162062 -0.0668558 0.141372 -0.00186624 0.239334 1.78432 0.0630262 5.55154e-09 5.5515e-09 5.54968e-09 1.98566e-07 1.98548e-07 1.98597e-07 8.85152e-06 8.85133e-06 8.84338e-06 8.85152e-06 8.85133e-06 8.84338e-06 0.0257899 0.0257897 0.0257805
1702990813.472370000 0 1 1 1 1 1 -2.2031 -0.245509 0.842188 -0.171921 -0.00917078 -0.0154182 0.450565 0.444369 -0.162021 -0.063559 0.149194 0.00774776 -0.0810638 1.49197 0.0550566 5.86225e-09 5.8622e-09 5.86016e-09 2.16128e-07 2.16111e-07 2.1616e-07 9.37097e-06 9.37077e-06 9.36234e-06 9.37097e-06 9.37077e-06 9.36234e-06 0.0341415 0.0341413 0.0341321
1702990813.477383000 0 1 1 1 1 1 -2.20085 -0.243278 0.841359 -0.171958 -0.00882115 -0.0154854 0.45453 0.450583 -0.160973 -0.0571845 0.143636 0.00153841 0.331942 1.45675 0.137754 5.53746e-09 5.53742e-09 5.53561e-09 1.97841e-07 1.97826e-07 1.97872e-07 8.82904e-06 8.82886e-06 8.8209e-06 8.82904e-06 8.82886e-06 8.8209e-06 0.0255924 0.0255922 0.0255829
1702990813.482373000 0 1 1 1 1 1 -2.19863 -0.240987 0.840529 -0.172048 -0.00831609 -0.0154379 0.452893 0.461028 -0.161596 -0.0523773 0.143204 0.0085276 0.143578 1.68602 0.099898 5.86329e-09 5.86324e-09 5.8612e-09 2.16191e-07 2.16177e-07 2.16222e-07 9.37275e-06 9.37255e-06 9.36412e-06 9.37275e-06 9.37255e-06 9.36412e-06 0.0341818 0.0341816 0.0341724
1702990813.487362000 0 1 1 1 1 1 -2.19641 -0.238692 0.83969 -0.172102 -0.00784202 -0.015378 0.451841 0.465301 -0.162377 -0.0493425 0.145829 0.0128586 0.0910951 1.37155 0.0517651 5.85952e-09 5.85947e-09 5.85744e-09 2.15941e-07 2.15928e-07 2.15972e-07 9.36586e-06 9.36566e-06 9.35724e-06 9.36586e-06 9.36566e-06 9.35724e-06 0.034037 0.0340367 0.0340275
1702990813.492403000 0 1 1 1 1 1 -2.19416 -0.236323 0.838858 -0.172116 -0.00746579 -0.0154086 0.453482 0.47452 -0.162106 -0.0450485 0.139302 0.0083248 0.255854 1.56758 0.0586012 5.87351e-09 5.87347e-09 5.87142e-09 2.16847e-07 2.16836e-07 2.16879e-07 9.39098e-06 9.39078e-06 9.38233e-06 9.39098e-06 9.39078e-06 9.38233e-06 0.0345788 0.0345786 0.0345694
1702990813.497378000 0 1 1 1 1 1 -2.19196 -0.233935 0.838033 -0.172125 -0.00702447 -0.015336 0.450942 0.482186 -0.161072 -0.0409289 0.140332 0.0151125 0.0417879 1.52544 0.171646 5.86502e-09 5.86497e-09 5.86294e-09 2.16299e-07 2.16289e-07 2.16331e-07 9.37578e-06 9.37557e-06 9.36715e-06 9.37578e-06 9.37557e-06 9.36715e-06 0.0342483 0.0342481 0.0342389
1702990813.502423000 0 1 1 1 1 1 -2.18971 -0.231494 0.837189 -0.172092 -0.00665553 -0.0153457 0.453367 0.489305 -0.16113 -0.0370212 0.139083 0.0115874 0.29801 1.5292 0.179274 5.55025e-09 5.55021e-09 5.54839e-09 1.98484e-07 1.98476e-07 1.98515e-07 8.84921e-06 8.84902e-06 8.84106e-06 8.84921e-06 8.84902e-06 8.84106e-06 0.0257716 0.0257714 0.0257622
1702990813.507369000 0 1 1 1 1 1 -2.18752 -0.229042 0.836355 -0.172162 -0.00618013 -0.0153172 0.451135 0.498965 -0.163118 -0.0397943 0.138841 0.0122922 0.0848648 1.68358 0.0124236 5.86192e-09 5.86187e-09 5.85984e-09 2.16093e-07 2.16085e-07 2.16124e-07 9.37012e-06 9.36992e-06 9.3615e-06 9.37012e-06 9.36992e-06 9.3615e-06 0.0341297 0.0341295 0.0341203
1702990813.512351000 0 1 1 1 1 1 -2.18533 -0.226595 0.83554 -0.172108 -0.0057276 -0.0152657 0.449995 0.501958 -0.161501 -0.0324811 0.141956 0.0148146 0.0957583 1.33536 0.137075 5.8558e-09 5.85575e-09 5.85372e-09 2.15704e-07 2.15698e-07 2.15736e-07 9.35929e-06 9.35909e-06 9.35067e-06 9.35929e-06 9.35909e-06 9.35067e-06 0.0338977 0.0338974 0.0338882
1702990813.517375000 0 1 1 1 1 1 -2.18309 -0.22402 0.834694 -0.171993 -0.00534521 -0.01526 0.452605 0.513677 -0.162324 -0.0248493 0.143153 0.0136926 0.304062 1.73685 0.0645822 5.53491e-09 5.53487e-09 5.53306e-09 1.97713e-07 1.97708e-07 1.97743e-07 8.82506e-06 8.82487e-06 8.81692e-06 8.82506e-06 8.82487e-06 8.81692e-06 0.0255619 0.0255617 0.0255524
1702990813.522347000 0 1 1 1 1 1 -2.18092 -0.221457 0.833872 -0.172014 -0.00489499 -0.0151802 0.447879 0.520994 -0.161819 -0.0277896 0.138526 0.0182634 -0.0867948 1.62873 0.127231 5.85439e-09 5.85434e-09 5.85231e-09 2.15632e-07 2.15628e-07 2.15664e-07 9.35723e-06 9.35703e-06 9.34862e-06 9.35723e-06 9.35703e-06 9.34862e-06 0.0338482 0.033848 0.0338388
1702990813.527387000 0 1 1 1 1 1 -2.17866 -0.218858 0.833035 -0.171862 -0.00449966 -0.0151578 0.452169 0.524013 -0.161051 -0.0218498 0.138892 0.01691 0.38988 1.31417 0.179377 5.53866e-09 5.53861e-09 5.5368e-09 1.97901e-07 1.97898e-07 1.97932e-07 8.83114e-06 8.83095e-06 8.82299e-06 8.83114e-06 8.83095e-06 8.82299e-06 0.0256108 0.0256106 0.0256013
1702990813.532406000 0 1 1 1 1 1 -2.17644 -0.216136 0.832179 -0.171629 -0.00397069 -0.0151174 0.451397 0.539089 -0.163424 -0.00579075 0.149154 0.0175321 0.200479 1.92695 -0.0212278 5.5447e-09 5.54465e-09 5.54284e-09 1.98204e-07 1.98202e-07 1.98235e-07 8.84074e-06 8.84055e-06 8.83258e-06 8.84074e-06 8.84055e-06 8.83258e-06 0.0256916 0.0256913 0.0256821
1702990813.537369000 0 1 1 1 1 1 -2.17428 -0.213494 0.831369 -0.17159 -0.00354288 -0.0150269 0.445313 0.542043 -0.16152 -0.0111318 0.140467 0.0215997 -0.240612 1.4403 0.161848 5.86173e-09 5.86168e-09 5.85964e-09 2.16077e-07 2.16075e-07 2.16108e-07 9.37007e-06 9.36986e-06 9.36144e-06 9.37007e-06 9.36986e-06 9.36144e-06 0.034118 0.0341177 0.0341086
1702990813.542386000 0 1 1 1 1 1 -2.17201 -0.210779 0.830531 -0.171347 -0.0032008 -0.0149942 0.454499 0.547546 -0.161289 -0.00608549 0.134972 0.0209048 0.620064 1.41008 0.157818 5.53824e-09 5.5382e-09 5.53639e-09 1.97865e-07 1.97864e-07 1.97896e-07 8.83033e-06 8.83015e-06 8.82217e-06 8.83033e-06 8.83015e-06 8.82217e-06 0.025602 0.0256018 0.0255925
1702990813.547373000 0 1 1 1 1 1 -2.16981 -0.207967 0.829687 -0.171011 -0.00257167 -0.0149402 0.450953 0.563039 -0.163677 0.0139993 0.150102 0.0205077 0.184017 2.02224 -0.0335253 5.86305e-09 5.863e-09 5.86096e-09 2.16161e-07 2.1616e-07 2.16192e-07 9.3724e-06 9.37221e-06 9.36376e-06 9.3724e-06 9.37221e-06 9.36376e-06 0.03417 0.0341698 0.0341606
1702990813.552384000 0 1 1 1 1 1 -2.16766 -0.205237 0.828871 -0.170789 -0.00212578 -0.0149075 0.444535 0.561004 -0.16127 0.0147625 0.148408 0.019186 -0.184347 1.18455 0.187107 5.86672e-09 5.86667e-09 5.86463e-09 2.16403e-07 2.16403e-07 2.16435e-07 9.37906e-06 9.37885e-06 9.37043e-06 9.37906e-06 9.37885e-06 9.37043e-06 0.0343119 0.0343116 0.0343025
1702990813.557409000 0 1 1 1 1 1 -2.16538 -0.202371 0.828021 -0.170459 -0.00172854 -0.0148655 0.454429 0.571718 -0.162511 0.0185189 0.147344 0.0207951 0.654376 1.63399 0.0504867 5.54551e-09 5.54547e-09 5.54365e-09 1.98242e-07 1.98242e-07 1.98273e-07 8.842e-06 8.84182e-06 8.83383e-06 8.842e-06 8.84182e-06 8.83383e-06 0.0257034 0.0257033 0.0256939
1702990813.562382000 0 1 1 1 1 1 -2.16322 -0.199471 0.827185 -0.170169 -0.00113065 -0.0148348 0.44754 0.584709 -0.163653 0.0229092 0.152796 0.0185798 -0.0391973 1.96322 -0.00586128 5.86602e-09 5.86597e-09 5.86393e-09 2.16355e-07 2.16355e-07 2.16386e-07 9.37777e-06 9.37757e-06 9.36914e-06 9.37777e-06 9.37757e-06 9.36914e-06 0.0342863 0.034286 0.0342769
1702990813.567354000 0 1 1 1 1 1 -2.16104 -0.196642 0.82637 -0.169814 -0.000599576 -0.0148581 0.44546 0.580665 -0.160686 0.0319678 0.156833 0.0137716 -0.0611651 0.961897 0.268717 5.85649e-09 5.85644e-09 5.85441e-09 2.15737e-07 2.15738e-07 2.15768e-07 9.36061e-06 9.36041e-06 9.35201e-06 9.36061e-06 9.36041e-06 9.35201e-06 0.033922 0.0339218 0.0339127
1702990813.572377000 0 1 1 1 1 1 -2.15876 -0.193657 0.825521 -0.169485 -0.000118021 -0.0147997 0.455508 0.594446 -0.162798 0.0321886 0.15523 0.0178009 0.718157 1.67164 0.0435548 5.86431e-09 5.86426e-09 5.86222e-09 2.16237e-07 2.16237e-07 2.16269e-07 9.37454e-06 9.37435e-06 9.36588e-06 9.37454e-06 9.37435e-06 9.36588e-06 0.03422 0.0342198 0.0342105
1702990813.577382000 0 1 1 1 1 1 -2.15661 -0.190611 0.82467 -0.169119 0.000469456 -0.014829 0.444708 0.607369 -0.163919 0.0331742 0.159682 0.0124122 -0.263079 1.91075 0.0138854 5.86605e-09 5.866e-09 5.86396e-09 2.16353e-07 2.16354e-07 2.16384e-07 9.37766e-06 9.37746e-06 9.36905e-06 9.37766e-06 9.37746e-06 9.36905e-06 0.0342882 0.0342879 0.0342788
1702990813.582345000 0 1 1 1 1 1 -2.15442 -0.187715 0.82387 -0.168693 0.00100525 -0.0148374 0.448021 0.601941 -0.160153 0.0425664 0.160666 0.0122605 0.216955 0.938791 0.310605 5.85345e-09 5.8534e-09 5.85137e-09 2.15535e-07 2.15535e-07 2.15566e-07 9.35493e-06 9.35473e-06 9.34632e-06 9.35493e-06 9.35473e-06 9.34632e-06 0.0338072 0.033807 0.0337977
1702990813.587435000 0 1 1 1 1 1 -2.15214 -0.184522 0.82299 -0.168135 0.00160349 -0.0148028 0.452868 0.62165 -0.163975 0.0550362 0.170027 0.0159839 0.463986 2.05563 -0.0366238 5.55377e-09 5.55373e-09 5.55191e-09 1.9865e-07 1.9865e-07 1.98681e-07 8.85473e-06 8.85455e-06 8.84656e-06 8.85473e-06 8.85455e-06 8.84656e-06 0.025823 0.0258228 0.0258135
1702990813.592375000 0 1 1 1 1 1 -2.15002 -0.181473 0.822172 -0.167748 0.00229907 -0.0148709 0.443174 0.626235 -0.163012 0.0542848 0.175285 0.00726353 -0.333574 1.62016 0.0896014 5.86365e-09 5.8636e-09 5.86156e-09 2.16195e-07 2.16195e-07 2.16226e-07 9.37314e-06 9.37293e-06 9.36452e-06 9.37314e-06 9.37293e-06 9.36452e-06 0.0341952 0.0341949 0.0341858
1702990813.597369000 0 1 1 1 1 1 -2.14775 -0.178402 0.821352 -0.167212 0.00290562 -0.0148794 0.451819 0.623846 -0.160394 0.0636547 0.175427 0.00964049 0.494205 0.907027 0.289104 5.86157e-09 5.86153e-09 5.85949e-09 2.16066e-07 2.16065e-07 2.16098e-07 9.36949e-06 9.36929e-06 9.36085e-06 9.36949e-06 9.36929e-06 9.36085e-06 0.0341167 0.0341165 0.0341072
1702990813.602349000 0 1 1 1 1 1 -2.14555 -0.175172 0.820495 -0.166611 0.00361413 -0.0148818 0.453783 0.644011 -0.164346 0.0731609 0.183356 0.0107845 0.489486 2.03777 -0.0574584 5.85479e-09 5.85474e-09 5.85271e-09 2.15632e-07 2.1563e-07 2.15664e-07 9.3574e-06 9.35721e-06 9.34876e-06 9.3574e-06 9.35721e-06 9.34876e-06 0.0338582 0.033858 0.0338487
1702990813.607351000 0 1 1 1 1 1 -2.1435 -0.172121 0.819707 -0.166086 0.00436572 -0.0150502 0.440213 0.641959 -0.160892 0.0739807 0.192392 -0.00335386 -0.397562 1.32601 0.213517 5.85546e-09 5.85542e-09 5.85338e-09 2.15676e-07 2.15673e-07 2.15707e-07 9.35858e-06 9.35837e-06 9.34998e-06 9.35858e-06 9.35837e-06 9.34998e-06 0.0338849 0.0338846 0.0338755
1702990813.612345000 0 1 1 1 1 1 -2.14131 -0.169056 0.818914 -0.165445 0.00499115 -0.0150527 0.449978 0.641261 -0.159082 0.0851271 0.190371 0.0043332 0.647719 1.0829 0.260246 5.85339e-09 5.85334e-09 5.85131e-09 2.15544e-07 2.15539e-07 2.15576e-07 9.3549e-06 9.35471e-06 9.34626e-06 9.3549e-06 9.35471e-06 9.34626e-06 0.0338057 0.0338056 0.0337962
1702990813.617381000 0 1 1 1 1 1 -2.13922 -0.165823 0.818077 -0.164719 0.00570823 -0.0151301 0.442871 0.656874 -0.162374 0.0943462 0.198027 0.00117439 0.019264 1.95506 -0.0514216 5.53653e-09 5.53649e-09 5.53468e-09 1.97773e-07 1.97768e-07 1.97803e-07 8.82716e-06 8.82698e-06 8.81903e-06 8.82716e-06 8.82698e-06 8.81903e-06 0.0255897 0.0255895 0.0255803
1702990813.622362000 0 1 1 1 1 1 -2.1371 -0.16267 0.817289 -0.164168 0.0065489 -0.0153119 0.437836 0.653887 -0.159139 0.0914325 0.203177 -0.0105054 -0.207396 1.10197 0.206925 5.85915e-09 5.8591e-09 5.85706e-09 2.15892e-07 2.15884e-07 2.15924e-07 9.36456e-06 9.36436e-06 9.35593e-06 9.36456e-06 9.36436e-06 9.35593e-06 0.0340385 0.0340383 0.0340291
1702990813.627396000 0 1 1 1 1 1 -2.13486 -0.159412 0.81648 -0.16354 0.00748336 -0.0153975 0.449379 0.659589 -0.157952 0.0939082 0.222557 -0.00681595 0.813655 1.2795 0.249865 5.87082e-09 5.87078e-09 5.86873e-09 2.16642e-07 2.1663e-07 2.16674e-07 9.38518e-06 9.385e-06 9.37651e-06 9.38518e-06 9.385e-06 9.37651e-06 0.0344866 0.0344865 0.0344771
1702990813.632373000 0 1 1 1 1 1 -2.13273 -0.156028 0.815623 -0.163033 0.0084529 -0.0155656 0.442815 0.676105 -0.162953 0.0845195 0.233551 -0.0138716 0.0929345 1.94236 -0.119661 5.86293e-09 5.86288e-09 5.86084e-09 2.16129e-07 2.16115e-07 2.1616e-07 9.37074e-06 9.37056e-06 9.36212e-06 9.37074e-06 9.37056e-06 9.36212e-06 0.034168 0.0341678 0.0341587
1702990813.637372000 0 1 1 1 1 1 -2.13059 -0.152761 0.814822 -0.162691 0.00946405 -0.0158841 0.439426 0.671008 -0.16006 0.0653254 0.240824 -0.0283638 -0.0378678 0.914419 0.130363 5.8625e-09 5.86246e-09 5.86042e-09 2.16108e-07 2.16089e-07 2.16139e-07 9.36991e-06 9.36972e-06 9.3613e-06 9.36991e-06 9.36972e-06 9.3613e-06 0.034148 0.0341477 0.0341386
1702990813.642346000 0 1 1 1 1 1 -2.12832 -0.149315 0.813997 -0.162295 0.0107253 -0.0159898 0.451507 0.684292 -0.159736 0.0587926 0.26962 -0.0189591 0.819949 1.52497 0.160912 5.85356e-09 5.85352e-09 5.85148e-09 2.15548e-07 2.15523e-07 2.15579e-07 9.35404e-06 9.35387e-06 9.34543e-06 9.35404e-06 9.35387e-06 9.34543e-06 0.0338079 0.0338077 0.0337984
1702990813.647391000 0 1 1 1 1 1 -2.12616 -0.145797 0.813135 -0.162002 0.0119937 -0.0163144 0.442862 0.697466 -0.163289 0.0477158 0.285643 -0.0353245 -0.0453172 1.86476 -0.0634231 5.86883e-09 5.86879e-09 5.86675e-09 2.16548e-07 2.16518e-07 2.16579e-07 9.38157e-06 9.38138e-06 9.37299e-06 9.38157e-06 9.38138e-06 9.37299e-06 0.0343935 0.0343932 0.0343842
1702990813.652376000 0 1 1 1 1 1 -2.12393 -0.14236 0.812311 -0.161882 0.0131992 -0.0166678 0.445753 0.694359 -0.161653 0.0274849 0.288629 -0.0430605 0.237621 0.927754 0.0850858 5.86361e-09 5.86356e-09 5.86153e-09 2.16217e-07 2.1618e-07 2.16248e-07 9.37226e-06 9.37208e-06 9.36368e-06 9.37226e-06 9.37208e-06 9.36368e-06 0.0341965 0.0341963 0.0341871
1702990813.657371000 0 1 1 1 1 1 -2.12166 -0.13878 0.811488 -0.161644 0.0146122 -0.016788 0.455142 0.710197 -0.160666 0.0232265 0.308291 -0.029423 0.831635 1.73674 0.151434 5.86189e-09 5.86185e-09 5.85981e-09 2.16114e-07 2.16069e-07 2.16146e-07 9.36925e-06 9.36908e-06 9.36064e-06 9.36925e-06 9.36908e-06 9.36064e-06 0.0341322 0.034132 0.0341227
1702990813.662364000 0 1 1 1 1 1 -2.11948 -0.13516 0.810639 -0.16139 0.0160405 -0.0172444 0.44688 0.719897 -0.161769 0.0252917 0.320586 -0.0529537 -0.0279309 1.67441 0.160167 5.85947e-09 5.85943e-09 5.8574e-09 2.15971e-07 2.15916e-07 2.16002e-07 9.36496e-06 9.36478e-06 9.35642e-06 9.36496e-06 9.36478e-06 9.35642e-06 0.0340406 0.0340404 0.0340314
1702990813.667352000 0 1 1 1 1 1 -2.11723 -0.131624 0.809795 -0.161188 0.0173553 -0.0175661 0.452223 0.717719 -0.163376 0.0231703 0.319613 -0.0514787 0.451761 0.932072 0.0025172 5.85536e-09 5.85532e-09 5.85329e-09 2.15712e-07 2.15648e-07 2.15743e-07 9.35757e-06 9.3574e-06 9.349e-06 9.35757e-06 9.3574e-06 9.349e-06 0.0338872 0.033887 0.0338778
1702990813.672342000 0 1 1 1 1 1 -2.11495 -0.127878 0.808956 -0.160862 0.0188409 -0.0177513 0.458018 0.73546 -0.163366 0.0282016 0.330175 -0.0413782 0.662614 1.75655 -0.00788844 5.852e-09 5.85196e-09 5.84993e-09 2.15507e-07 2.15432e-07 2.15539e-07 9.35158e-06 9.35142e-06 9.34298e-06 9.35158e-06 9.35142e-06 9.34298e-06 0.0337607 0.0337605 0.0337512
1702990813.677363000 0 1 1 1 1 1 -2.11274 -0.124179 0.808141 -0.160428 0.0203151 -0.0182124 0.451598 0.741607 -0.159869 0.0429357 0.335597 -0.0604081 0.0439272 1.52492 0.345318 5.85908e-09 5.85904e-09 5.85701e-09 2.15965e-07 2.15877e-07 2.15996e-07 9.36394e-06 9.36375e-06 9.35537e-06 9.36394e-06 9.36375e-06 9.35537e-06 0.0340407 0.0340405 0.0340314
1702990813.682398000 0 1 1 1 1 1 -2.11043 -0.120431 0.807283 -0.159866 0.0216758 -0.0184755 0.459801 0.745433 -0.161026 0.0639625 0.335826 -0.0495815 0.692214 1.26088 0.27045 5.54161e-09 5.54158e-09 5.53977e-09 1.98098e-07 1.98006e-07 1.98128e-07 8.83424e-06 8.83408e-06 8.82615e-06 8.83424e-06 8.83408e-06 8.82615e-06 0.0256668 0.0256667 0.0256574
1702990813.687351000 0 1 1 1 1 1 -2.10817 -0.116658 0.806427 -0.159414 0.0231196 -0.0186993 0.461221 0.757743 -0.165313 0.0668219 0.334201 -0.0448613 0.570465 1.66177 -0.122831 5.85508e-09 5.85504e-09 5.85301e-09 2.15727e-07 2.15612e-07 2.15758e-07 9.35642e-06 9.35626e-06 9.34782e-06 9.35642e-06 9.35626e-06 9.34782e-06 0.0338835 0.0338833 0.033874
1702990813.692396000 0 1 1 1 1 1 -2.10589 -0.112794 0.805594 -0.158655 0.0244748 -0.0190725 0.45904 0.764309 -0.162481 0.0899692 0.325737 -0.0539832 0.257015 1.44569 0.168526 5.87037e-09 5.87033e-09 5.86829e-09 2.1673e-07 2.16601e-07 2.16761e-07 9.3837e-06 9.38353e-06 9.37511e-06 9.3837e-06 9.38353e-06 9.37511e-06 0.0344926 0.0344924 0.0344833
1702990813.697393000 0 1 1 1 1 1 -2.10361 -0.108983 0.804755 -0.157754 0.0257372 -0.0193263 0.462697 0.768792 -0.162707 0.119356 0.315689 -0.0479269 0.504636 1.2792 0.155486 5.86936e-09 5.86932e-09 5.86728e-09 2.1668e-07 2.16538e-07 2.16712e-07 9.38153e-06 9.38136e-06 9.37294e-06 9.38153e-06 9.38136e-06 9.37294e-06 0.0345162 0.034516 0.0345068
1702990813.702343000 0 1 1 1 1 1 -2.10133 -0.105101 0.803907 -0.1568 0.0270239 -0.0195309 0.465609 0.778836 -0.164131 0.139858 0.312723 -0.0413635 0.559827 1.47597 0.0451245 5.85245e-09 5.85241e-09 5.85038e-09 2.15605e-07 2.15449e-07 2.15637e-07 9.35086e-06 9.3507e-06 9.34228e-06 9.35086e-06 9.3507e-06 9.34228e-06 0.0338776 0.0338774 0.0338682
1702990813.707317000 0 1 1 1 1 1 -2.09907 -0.101214 0.803075 -0.155691 0.0282266 -0.0198367 0.465069 0.786803 -0.163554 0.162529 0.305238 -0.0474601 0.404279 1.54027 0.122612 5.84373e-09 5.84369e-09 5.84167e-09 2.15064e-07 2.14894e-07 2.15095e-07 9.33503e-06 9.33486e-06 9.32648e-06 9.33503e-06 9.33486e-06 9.32648e-06 0.0335392 0.033539 0.0335298
1702990813.712365000 0 1 1 1 1 1 -2.09675 -0.0972194 0.802212 -0.154387 0.0293677 -0.0200821 0.465668 0.791772 -0.164379 0.191993 0.29138 -0.0434982 0.352848 1.28383 0.0737017 5.85996e-09 5.85992e-09 5.85788e-09 2.16112e-07 2.15927e-07 2.16144e-07 9.36375e-06 9.36359e-06 9.35518e-06 9.36375e-06 9.36359e-06 9.35518e-06 0.0341352 0.0341351 0.0341259
1702990813.717360000 0 1 1 1 1 1 -2.09443 -0.0932641 0.80138 -0.152999 0.0305232 -0.0202165 0.470833 0.798034 -0.163295 0.216877 0.286287 -0.0320356 0.687246 1.31878 0.137191 5.85826e-09 5.85822e-09 5.85619e-09 2.16017e-07 2.15816e-07 2.16049e-07 9.36075e-06 9.3606e-06 9.35215e-06 9.36075e-06 9.3606e-06 9.35215e-06 0.0340541 0.0340539 0.0340446
1702990813.722359000 0 1 1 1 1 1 -2.09212 -0.0891891 0.800529 -0.151436 0.0316973 -0.0204919 0.47038 0.810558 -0.16332 0.245541 0.285827 -0.0395973 0.437187 1.68529 0.185417 5.85783e-09 5.85779e-09 5.85576e-09 2.16006e-07 2.15789e-07 2.16037e-07 9.36011e-06 9.35996e-06 9.35154e-06 9.36011e-06 9.35996e-06 9.35154e-06 0.0340235 0.0340233 0.0340141
1702990813.727381000 0 1 1 1 1 1 -2.08984 -0.0851865 0.799675 -0.149798 0.0327173 -0.0207534 0.467813 0.810251 -0.164374 0.269894 0.272209 -0.0403813 0.220124 1.08709 0.0941426 5.86525e-09 5.86521e-09 5.86317e-09 2.16501e-07 2.1627e-07 2.16532e-07 9.37366e-06 9.3735e-06 9.36506e-06 9.37366e-06 9.3735e-06 9.36506e-06 0.0342978 0.0342976 0.0342884
1702990813.732429000 0 1 1 1 1 1 -2.08744 -0.081051 0.798808 -0.14794 0.0337282 -0.0208471 0.477649 0.819822 -0.166028 0.297778 0.265305 -0.0245607 0.91669 1.44104 -0.103693 5.55135e-09 5.55132e-09 5.54949e-09 1.98727e-07 1.98501e-07 1.98758e-07 8.84898e-06 8.84884e-06 8.84081e-06 8.84898e-06 8.84884e-06 8.84081e-06 0.0258117 0.0258116 0.0258022
1702990813.737420000 0 1 1 1 1 1 -2.08514 -0.0769027 0.797996 -0.146095 0.0349625 -0.0211226 0.473309 0.832104 -0.162032 0.319356 0.272556 -0.0364684 0.319294 1.80013 0.265286 5.87829e-09 5.87825e-09 5.8762e-09 2.17388e-07 2.17122e-07 2.17419e-07 9.39774e-06 9.39759e-06 9.38909e-06 9.39774e-06 9.39759e-06 9.38909e-06 0.0347857 0.0347855 0.0347762
1702990813.742360000 0 1 1 1 1 1 -2.08284 -0.0728578 0.797156 -0.144158 0.0359887 -0.0213905 0.473303 0.828356 -0.16204 0.34082 0.266703 -0.0383011 0.314247 0.884436 0.282881 5.85779e-09 5.85775e-09 5.85571e-09 2.16078e-07 2.15798e-07 2.16109e-07 9.36125e-06 9.36109e-06 9.35262e-06 9.36125e-06 9.36109e-06 9.35262e-06 0.0339851 0.0339849 0.0339757
1702990813.747376000 0 1 1 1 1 1 -2.08043 -0.0686675 0.796291 -0.142155 0.0370295 -0.0214857 0.484555 0.838726 -0.165508 0.354785 0.262612 -0.025629 1.0753 1.39762 -0.0813794 5.86312e-09 5.86308e-09 5.86103e-09 2.16444e-07 2.16147e-07 2.16476e-07 9.37117e-06 9.37104e-06 9.36248e-06 9.37117e-06 9.37104e-06 9.36248e-06 0.0341873 0.0341872 0.0341777
1702990813.752390000 0 1 1 1 1 1 -2.07816 -0.0644277 0.795452 -0.140021 0.0381297 -0.0219092 0.473744 0.847768 -0.163898 0.367798 0.265687 -0.0466035 -0.0231183 1.44314 0.0919777 5.53857e-09 5.53854e-09 5.53672e-09 1.98159e-07 1.97871e-07 1.98189e-07 8.82988e-06 8.82974e-06 8.82172e-06 8.82988e-06 8.82974e-06 8.82172e-06 0.0256117 0.0256116 0.0256023
1702990813.757375000 0 1 1 1 1 1 -2.07578 -0.0602762 0.794647 -0.13786 0.0393092 -0.022102 0.479698 0.843503 -0.159528 0.389345 0.269102 -0.0395526 0.507526 0.631244 0.440504 5.86273e-09 5.86269e-09 5.86064e-09 2.16471e-07 2.16137e-07 2.16503e-07 9.37109e-06 9.37095e-06 9.36242e-06 9.37109e-06 9.37095e-06 9.36242e-06 0.0341704 0.0341702 0.0341609
1702990813.762353000 0 1 1 1 1 1 -2.07335 -0.0559398 0.793774 -0.1357 0.0404662 -0.0222203 0.489794 0.860605 -0.164499 0.398513 0.274336 -0.0291081 1.0368 1.60995 -0.0189097 5.85523e-09 5.85519e-09 5.85314e-09 2.16018e-07 2.15665e-07 2.1605e-07 9.35805e-06 9.35794e-06 9.34936e-06 9.35805e-06 9.35794e-06 9.34936e-06 0.0338832 0.0338831 0.0338736
1702990813.767366000 0 1 1 1 1 1 -2.07106 -0.051649 0.792952 -0.133624 0.0416724 -0.0226709 0.478178 0.866341 -0.162233 0.393412 0.278525 -0.0519013 -0.0481932 1.43025 0.171151 5.85964e-09 5.85961e-09 5.85755e-09 2.16321e-07 2.15945e-07 2.16352e-07 9.36601e-06 9.36588e-06 9.35733e-06 9.36601e-06 9.36588e-06 9.35733e-06 0.0340533 0.0340531 0.0340438
1702990813.772384000 0 1 1 1 1 1 -2.0686 -0.0473647 0.792133 -0.131381 0.0428897 -0.0228836 0.488735 0.861933 -0.159003 0.405531 0.282987 -0.0408175 0.812095 0.646026 0.405921 5.86578e-09 5.86575e-09 5.86368e-09 2.16735e-07 2.16337e-07 2.16766e-07 9.37701e-06 9.37689e-06 9.36829e-06 9.37701e-06 9.37689e-06 9.36829e-06 0.0342868 0.0342867 0.0342773
1702990813.777329000 0 1 1 1 1 1 -2.06622 -0.0429964 0.791276 -0.129087 0.0441809 -0.0230606 0.494125 0.880401 -0.164232 0.422481 0.293037 -0.0356406 0.951233 1.79653 -0.0770049 5.84715e-09 5.84712e-09 5.84506e-09 2.15563e-07 2.15142e-07 2.15594e-07 9.34379e-06 9.34369e-06 9.33509e-06 9.34379e-06 9.34369e-06 9.33509e-06 0.033578 0.0335779 0.0335684
1702990813.782395000 0 1 1 1 1 1 -2.06387 -0.0386189 0.790453 -0.126878 0.045457 -0.0236619 0.483685 0.876349 -0.16102 0.420066 0.297226 -0.0653919 0.0222389 0.755123 0.194015 5.5402e-09 5.54018e-09 5.53834e-09 1.98369e-07 1.97959e-07 1.98399e-07 8.83313e-06 8.83302e-06 8.82492e-06 8.83313e-06 8.83302e-06 8.82492e-06 0.0256326 0.0256325 0.0256231
1702990813.787380000 0 1 1 1 1 1 -2.06138 -0.0342545 0.789658 -0.124696 0.0467759 -0.0238253 0.497723 0.878392 -0.157355 0.420815 0.299634 -0.0473322 1.10966 0.665491 0.427359 5.86454e-09 5.86451e-09 5.86243e-09 2.16719e-07 2.16245e-07 2.16751e-07 9.37462e-06 9.37452e-06 9.36587e-06 9.37462e-06 9.37452e-06 9.36587e-06 0.0342365 0.0342364 0.0342269
1702990813.792406000 0 1 1 1 1 1 -2.05898 -0.0297009 0.788796 -0.122276 0.0481292 -0.024207 0.493834 0.898085 -0.161494 0.434973 0.30815 -0.0571717 0.417678 1.79917 0.076374 5.54383e-09 5.54381e-09 5.54196e-09 1.98599e-07 1.9814e-07 1.98629e-07 8.83875e-06 8.83866e-06 8.83053e-06 8.83875e-06 8.83866e-06 8.83053e-06 0.0256814 0.0256813 0.025672
1702990813.797319000 0 1 1 1 1 1 -2.05662 -0.025387 0.788013 -0.120097 0.0495343 -0.0247329 0.489852 0.892088 -0.158266 0.434505 0.311246 -0.0770442 0.0674355 0.706573 0.295703 5.84386e-09 5.84384e-09 5.84177e-09 2.15448e-07 2.1492e-07 2.15479e-07 9.33761e-06 9.33751e-06 9.32891e-06 9.33761e-06 9.33751e-06 9.32891e-06 0.0334509 0.0334508 0.0334413
1702990813.802351000 0 1 1 1 1 1 -2.05405 -0.0208522 0.787198 -0.117742 0.0509576 -0.0249141 0.506328 0.898062 -0.156658 0.44068 0.320159 -0.0536929 1.24726 0.913405 0.35657 5.85475e-09 5.85473e-09 5.85265e-09 2.16169e-07 2.15608e-07 2.162e-07 9.35684e-06 9.35676e-06 9.34808e-06 9.35684e-06 9.35676e-06 9.34808e-06 0.0338602 0.0338602 0.0338505
1702990813.807358000 0 1 1 1 1 1 -2.05164 -0.0162776 0.786359 -0.115399 0.0523208 -0.0253189 0.500885 0.913804 -0.160281 0.443755 0.317101 -0.0647565 0.476305 1.71372 0.0293216 5.85715e-09 5.85713e-09 5.85504e-09 2.16354e-07 2.15762e-07 2.16385e-07 9.36105e-06 9.36098e-06 9.35232e-06 9.36105e-06 9.36098e-06 9.35232e-06 0.0339487 0.0339486 0.0339392
1702990813.812405000 0 1 1 1 1 1 -2.04917 -0.0117961 0.785558 -0.113107 0.0536366 -0.0259379 0.502123 0.903607 -0.1575 0.440713 0.311838 -0.079363 0.600956 0.355788 0.17368 5.54357e-09 5.54355e-09 5.54169e-09 1.9869e-07 1.98119e-07 1.98721e-07 8.83806e-06 8.83798e-06 8.82977e-06 8.83806e-06 8.83798e-06 8.82977e-06 0.0256778 0.0256777 0.0256681
1702990813.817359000 0 1 1 1 1 1 -2.04663 -0.00723164 0.784797 -0.110818 0.0552414 -0.026106 0.514639 0.915752 -0.152814 0.444599 0.332608 -0.0576022 1.34784 1.13504 0.470902 5.85748e-09 5.85746e-09 5.85536e-09 2.16441e-07 2.15781e-07 2.16473e-07 9.36157e-06 9.36151e-06 9.35276e-06 9.36157e-06 9.36151e-06 9.35276e-06 0.0339613 0.0339613 0.0339516
1702990813.822354000 0 1 1 1 1 1 -2.04419 -0.00257889 0.783976 -0.108538 0.056646 -0.0266824 0.506832 0.926806 -0.155018 0.441604 0.328674 -0.0827125 0.371229 1.41506 0.278255 5.85581e-09 5.85579e-09 5.85369e-09 2.16367e-07 2.15673e-07 2.16398e-07 9.35851e-06 9.35845e-06 9.34974e-06 9.35851e-06 9.35845e-06 9.34974e-06 0.0339001 0.0339 0.0338905
1702990813.827358000 0 1 1 1 1 1 -2.04169 0.00192559 0.783182 -0.106331 0.0579563 -0.027233 0.509951 0.918192 -0.155464 0.436476 0.316794 -0.0881654 0.61926 0.362756 0.0996259 5.85714e-09 5.85713e-09 5.85502e-09 2.16483e-07 2.15757e-07 2.16515e-07 9.3609e-06 9.36083e-06 9.35205e-06 9.3609e-06 9.36083e-06 9.35205e-06 0.0339501 0.03395 0.0339403
1702990813.832448000 0 1 1 1 1 1 -2.03908 0.0067174 0.782383 -0.103949 0.0594276 -0.02741 0.51912 0.934142 -0.154699 0.438984 0.324604 -0.060218 1.06049 1.41149 0.029736 5.55716e-09 5.55715e-09 5.55526e-09 1.99517e-07 1.98813e-07 1.99548e-07 8.85967e-06 8.85963e-06 8.85126e-06 8.85967e-06 8.85963e-06 8.85126e-06 0.0258735 0.0258735 0.0258637
1702990813.837339000 0 1 1 1 1 1 -2.03664 0.0112787 0.781668 -0.101745 0.0609247 -0.028066 0.513188 0.938205 -0.147562 0.439888 0.329997 -0.0947495 0.322786 1.19125 0.62015 5.8505e-09 5.85049e-09 5.84838e-09 2.16141e-07 2.15339e-07 2.16172e-07 9.34919e-06 9.34914e-06 9.34036e-06 9.34919e-06 9.34914e-06 9.34036e-06 0.0336914 0.0336914 0.0336818
1702990813.842320000 0 1 1 1 1 1 -2.03406 0.0159072 0.780868 -0.0995097 0.0622733 -0.0284934 0.520991 0.934415 -0.15065 0.43925 0.323243 -0.084439 0.851465 0.503651 0.244461 5.84402e-09 5.84401e-09 5.8419e-09 2.15761e-07 2.14925e-07 2.15793e-07 9.33769e-06 9.33764e-06 9.32882e-06 9.33769e-06 9.33764e-06 9.32882e-06 0.0334538 0.0334537 0.033444
1702990813.847373000 0 1 1 1 1 1 -2.03144 0.0206913 0.78009 -0.0972184 0.0637326 -0.0286995 0.527591 0.946688 -0.15122 0.437684 0.325546 -0.0646159 1.07371 1.24483 0.0431188 5.86198e-09 5.86197e-09 5.85984e-09 2.16952e-07 2.16072e-07 2.16985e-07 9.36978e-06 9.36975e-06 9.36083e-06 9.36978e-06 9.36975e-06 9.36083e-06 0.0341309 0.0341309 0.034121
1702990813.852338000 0 1 1 1 1 1 -2.02892 0.0254039 0.779374 -0.0949506 0.0650967 -0.0294377 0.523323 0.949929 -0.144369 0.437913 0.3191 -0.0995369 0.473146 0.960636 0.575531 5.85009e-09 5.85007e-09 5.84795e-09 2.16226e-07 2.15311e-07 2.16258e-07 9.34855e-06 9.34851e-06 9.33965e-06 9.34855e-06 9.34851e-06 9.33965e-06 0.0336832 0.0336832 0.0336735
1702990813.857351000 0 1 1 1 1 1 -2.0263 0.0300942 0.778612 -0.0926416 0.0663936 -0.0297727 0.530604 0.947408 -0.144897 0.444361 0.310894 -0.0801946 0.953335 0.525165 0.428152 5.85448e-09 5.85446e-09 5.85233e-09 2.16539e-07 2.15586e-07 2.16572e-07 9.35627e-06 9.35624e-06 9.34735e-06 9.35627e-06 9.35624e-06 9.34735e-06 0.0338495 0.0338495 0.0338397
1702990813.862372000 0 1 1 1 1 1 -2.02364 0.0349545 0.777832 -0.0903641 0.067748 -0.0300895 0.535782 0.959152 -0.147887 0.44177 0.309832 -0.0735987 0.997988 1.11471 0.0592604 5.86156e-09 5.86155e-09 5.85941e-09 2.17032e-07 2.16037e-07 2.17064e-07 9.36885e-06 9.36884e-06 9.3599e-06 9.36885e-06 9.36884e-06 9.3599e-06 0.0341212 0.0341212 0.0341114
1702990813.867377000 0 1 1 1 1 1 -2.02107 0.0397136 0.777125 -0.0881836 0.0689803 -0.0307897 0.532506 0.960842 -0.142464 0.431444 0.300055 -0.100725 0.527146 0.860464 0.408872 5.86331e-09 5.8633e-09 5.86115e-09 2.17179e-07 2.16147e-07 2.17212e-07 9.37189e-06 9.37187e-06 9.36294e-06 9.37189e-06 9.37187e-06 9.36294e-06 0.0341867 0.0341867 0.0341769
1702990813.872337000 0 1 1 1 1 1 -2.0184 0.0444801 0.776403 -0.0858942 0.0701552 -0.0310671 0.54073 0.961329 -0.139957 0.437143 0.289243 -0.0775679 0.993946 0.581292 0.534523 5.84974e-09 5.84974e-09 5.84759e-09 2.1634e-07 2.15277e-07 2.16372e-07 9.34758e-06 9.34756e-06 9.33865e-06 9.34758e-06 9.34756e-06 9.33865e-06 0.0336713 0.0336713 0.0336615
1702990813.877403000 0 1 1 1 1 1 -2.0157 0.0494113 0.775651 -0.0835885 0.0713348 -0.0315507 0.543934 0.971469 -0.140718 0.437549 0.283223 -0.0851721 0.909829 1.10491 0.373918 5.54261e-09 5.54261e-09 5.54069e-09 1.99072e-07 1.9806e-07 1.99103e-07 8.83627e-06 8.83627e-06 8.82783e-06 8.83627e-06 8.83627e-06 8.82783e-06 0.0256678 0.0256678 0.025658
1702990813.882425000 0 1 1 1 1 1 -2.01306 0.0542281 0.774934 -0.0814251 0.0725612 -0.032135 0.542463 0.97035 -0.139241 0.430033 0.284153 -0.0972157 0.585622 0.634815 0.360131 5.54964e-09 5.54964e-09 5.54772e-09 1.99466e-07 1.98418e-07 1.99498e-07 8.84742e-06 8.84741e-06 8.83894e-06 8.84742e-06 8.84741e-06 8.83894e-06 0.0257677 0.0257677 0.0257578
1702990813.887349000 0 1 1 1 1 1 -2.01036 0.0589952 0.774246 -0.0792572 0.0736692 -0.0324031 0.550574 0.970944 -0.136715 0.428111 0.272449 -0.0785362 1.03701 0.460366 0.427234 5.85374e-09 5.85374e-09 5.85158e-09 2.16705e-07 2.1553e-07 2.16738e-07 9.35458e-06 9.35458e-06 9.34559e-06 9.35458e-06 9.35458e-06 9.34559e-06 0.0338224 0.0338224 0.0338125
1702990813.892356000 0 1 1 1 1 1 -2.00762 0.063958 0.773534 -0.0769489 0.0748144 -0.0327958 0.555401 0.982249 -0.136113 0.434919 0.267557 -0.0788998 1.02907 1.04586 0.361383 5.85612e-09 5.85612e-09 5.85395e-09 2.16897e-07 2.15685e-07 2.1693e-07 9.35887e-06 9.35888e-06 9.34986e-06 9.35887e-06 9.35888e-06 9.34986e-06 0.0339106 0.0339106 0.0339007
1702990813.897369000 0 1 1 1 1 1 -2.00494 0.0688223 0.77286 -0.0748103 0.0759373 -0.0333764 0.552385 0.981568 -0.131931 0.427262 0.265553 -0.093921 0.574942 0.651754 0.588616 5.86052e-09 5.86052e-09 5.85835e-09 2.17218e-07 2.15967e-07 2.17251e-07 9.36671e-06 9.36672e-06 9.35769e-06 9.36671e-06 9.36672e-06 9.35769e-06 0.0340808 0.0340808 0.0340709
1702990813.902351000 0 1 1 1 1 1 -2.00215 0.0737205 0.772164 -0.0726484 0.0769687 -0.0337331 0.562734 0.982208 -0.13191 0.422366 0.259566 -0.0810744 1.16493 0.462631 0.45288 5.85439e-09 5.85439e-09 5.85222e-09 2.16859e-07 2.15576e-07 2.16892e-07 9.35582e-06 9.35584e-06 9.34679e-06 9.35582e-06 9.35584e-06 9.34679e-06 0.0338466 0.0338466 0.0338366
1702990813.907395000 0 1 1 1 1 1 -1.99937 0.0787196 0.771462 -0.070405 0.0779933 -0.034025 0.56483 0.99237 -0.133636 0.423751 0.251259 -0.071459 0.96543 1.05656 0.146092 5.86934e-09 5.86934e-09 5.86715e-09 2.17863e-07 2.1654e-07 2.17897e-07 9.38265e-06 9.38268e-06 9.37357e-06 9.38265e-06 9.38268e-06 9.37357e-06 0.0344204 0.0344205 0.0344105
1702990813.912384000 0 1 1 1 1 1 -1.99661 0.0836441 0.770831 -0.0682833 0.0790098 -0.0346877 0.564165 0.99006 -0.126827 0.419637 0.245341 -0.0971857 0.66461 0.456708 0.569344 5.86564e-09 5.86565e-09 5.86345e-09 2.17657e-07 2.16301e-07 2.17691e-07 9.37605e-06 9.37607e-06 9.36695e-06 9.37605e-06 9.37607e-06 9.36695e-06 0.0342767 0.0342767 0.0342667
1702990813.917351000 0 1 1 1 1 1 -1.99379 0.0885364 0.770199 -0.0661891 0.0799208 -0.0350278 0.575201 0.991619 -0.122655 0.415029 0.236951 -0.0801991 1.32965 0.502071 0.770538 5.85441e-09 5.85442e-09 5.85223e-09 2.16968e-07 2.15584e-07 2.17001e-07 9.3561e-06 9.35613e-06 9.34701e-06 9.3561e-06 9.35613e-06 9.34701e-06 0.033847 0.0338471 0.033837
1702990813.922408000 0 1 1 1 1 1 -1.99098 0.0936115 0.769522 -0.0639832 0.0807986 -0.0353621 0.572616 1.00058 -0.1236 0.412172 0.228923 -0.0751761 0.717953 0.915072 0.581452 5.54418e-09 5.54418e-09 5.54223e-09 1.99451e-07 1.98151e-07 1.99483e-07 8.83907e-06 8.8391e-06 8.83049e-06 8.83907e-06 8.8391e-06 8.83049e-06 0.0256866 0.0256867 0.0256767
1702990813.927394000 0 1 1 1 1 1 -1.98815 0.0985394 0.76887 -0.0617982 0.081691 -0.036101 0.575233 0.995946 -0.124808 0.419018 0.218756 -0.111155 0.724407 0.244885 0.259198 5.86899e-09 5.86899e-09 5.86678e-09 2.17978e-07 2.16526e-07 2.18012e-07 9.38241e-06 9.38244e-06 9.37324e-06 9.38241e-06 9.38244e-06 9.37324e-06 0.0344066 0.0344066 0.0343965
1702990813.932375000 0 1 1 1 1 1 -1.98524 0.103572 0.768272 -0.0595216 0.0824532 -0.0362072 0.586884 1.00274 -0.118814 0.429639 0.207982 -0.0671634 1.31786 0.621904 0.591057 5.86246e-09 5.86246e-09 5.86025e-09 2.17573e-07 2.16097e-07 2.17607e-07 9.37064e-06 9.37068e-06 9.36145e-06 9.37064e-06 9.37068e-06 9.36145e-06 0.0341471 0.0341472 0.034137
