    ts      x      y      z   roll  pitch    yaw     vx     vy     vz     wx     wy     wz     ax     ay     az    dwx    dwy    dwz
 0.0050000  -2.5000000  -0.3000000   1.0000000   0.0000000   0.0000000  -0.0400000   0.0000002  -0.0000002  -0.0000002   0.0000000   0.0000000   0.0000000   0.0001250  -0.0001250  -0.0001250   0.0000000   0.0000000   0.0000000
 0.0100000  -2.5000000  -0.3000000   1.0000000   0.0000000   0.0000000  -0.0400000   0.0000017  -0.0000017  -0.0000017   0.0000000   0.0000000   0.0000000   0.0005000  -0.0005000  -0.0005000   0.0000000   0.0000000   0.0000000
 0.0150000  -2.5000000  -0.3000000   1.0000000   0.0000000   0.0000000  -0.0400000   0.0000056  -0.0000056  -0.0000056   0.0000000   0.0000000   0.0000000   0.0011250  -0.0011250  -0.0011250   0.0000000   0.0000000   0.0000000
 0.0200000  -2.5000000  -0.3000000   1.0000000   0.0000000   0.0000000  -0.0399999   0.0000133  -0.0000133  -0.0000133   0.0000000   0.0000000   0.0000000   0.0020000  -0.0020000  -0.0020000   0.0000000   0.0000000   0.0000000
 0.0250000  -2.5000000  -0.3000000   1.0000000   0.0000000   0.0000000  -0.0399997   0.0000260  -0.0000260  -0.0000260   0.0000000   0.0000000   0.0000000   0.0031250  -0.0031250  -0.0031250   0.0000000   0.0000000   0.0000000
 0.0300000  -2.5000000  -0.3000000   1.0000000   0.0000000   0.0000000  -0.0399995   0.0000450  -0.0000450  -0.0000450   0.0000000   0.0000000   0.0000000   0.0045000  -0.0045000  -0.0045000   0.0000000   0.0000000   0.0000000
 0.0350000  -2.5000000  -0.3000010   0.9999990   0.0000000   0.0000000  -0.0399990   0.0000715  -0.0000715  -0.0000715   0.0000000   0.0000000   0.0000000   0.0061250  -0.0061250  -0.0061250   0.0000000   0.0000000   0.0000000
 0.0400000  -2.5000000  -0.3000010   0.9999990   0.0000000   0.0000000  -0.0399983   0.0001067  -0.0001067  -0.0001067   0.0000000   0.0000000   0.0000000   0.0080000  -0.0080000  -0.0080000   0.0000000   0.0000000   0.0000000
 0.0450000  -2.5000000  -0.3000020   0.9999980   0.0000000   0.0000000  -0.0399973   0.0001519  -0.0001519  -0.0001519   0.0000000   0.0000000   0.0000000   0.0101250  -0.0101250  -0.0101250   0.0000000   0.0000000   0.0000000
 0.0500000  -2.5000000  -0.3000030   0.9999970   0.0000000   0.0000000  -0.0399958   0.0002083  -0.0002083  -0.0002083   0.0000000   0.0000000   0.0000000   0.0125000  -0.0125000  -0.0125000   0.0000000   0.0000000   0.0000000
 0.0550000  -2.5000000  -0.3000040   0.9999960   0.0000000   0.0000000  -0.0399939   0.0002773  -0.0002773  -0.0002773   0.0000000   0.0000000   0.0000000   0.0151250  -0.0151250  -0.0151250   0.0000000   0.0000000   0.0000000
 0.0600000  -2.4999900  -0.3000050   0.9999950   0.0000000   0.0000000  -0.0399914   0.0003600  -0.0003600  -0.0003600   0.0000000   0.0000000   0.0000000   0.0180000  -0.0180000  -0.0180000   0.0000000   0.0000000   0.0000000
 0.0650000  -2.4999900  -0.3000070   0.9999930   0.0000000   0.0000000  -0.0399881   0.0004577  -0.0004577  -0.0004577   0.0000000   0.0000000   0.0000000   0.0211250  -0.0211250  -0.0211250   0.0000000   0.0000000   0.0000000
 0.0700000  -2.4999900  -0.3000100   0.9999900   0.0000000   0.0000000  -0.0399840   0.0005717  -0.0005717  -0.0005717   0.0000000   0.0000000   0.0000000   0.0245000  -0.0245000  -0.0245000   0.0000000   0.0000000   0.0000000
 0.0750000  -2.4999900  -0.3000130   0.9999870   0.0000000   0.0000000  -0.0399789   0.0007031  -0.0007031  -0.0007031   0.0000000   0.0000000   0.0000000   0.0281250  -0.0281250  -0.0281250   0.0000000   0.0000000   0.0000000
 0.0800000  -2.4999800  -0.3000170   0.9999830   0.0000000   0.0000000  -0.0399727   0.0008533  -0.0008533  -0.0008533   0.0000000   0.0000000   0.0000000   0.0320000  -0.0320000  -0.0320000   0.0000000   0.0000000   0.0000000
 0.0850000  -2.4999800  -0.3000220   0.9999780   0.0000000   0.0000000  -0.0399652   0.0010235  -0.0010235  -0.0010235   0.0000000   0.0000000   0.0000000   0.0361250  -0.0361250  -0.0361250   0.0000000   0.0000000   0.0000000
 0.0900000  -2.4999700  -0.3000270   0.9999730   0.0000000   0.0000000  -0.0399563   0.0012150  -0.0012150  -0.0012150   0.0000000   0.0000000   0.0000000   0.0405000  -0.0405000  -0.0405000   0.0000000   0.0000000   0.0000000
 0.0950000  -2.4999700  -0.3000340   0.9999660   0.0000000   0.0000000  -0.0399457   0.0014290  -0.0014290  -0.0014290   0.0000000   0.0000000   0.0000000   0.0451250  -0.0451250  -0.0451250   0.0000000   0.0000000   0.0000000
 0.1000000  -2.4999600  -0.3000420   0.9999580   0.0000000   0.0000000  -0.0399333   0.0016667  -0.0016667  -0.0016667   0.0000000   0.0000000   0.0000000   0.0500000  -0.0500000  -0.0500000   0.0000000   0.0000000   0.0000000
 0.1050000  -2.4999500  -0.3000510   0.9999490   0.0000000   0.0000000  -0.0399190   0.0019294  -0.0019294  -0.0019294   0.0000000   0.0000000   0.0000000   0.0551250  -0.0551250  -0.0551250   0.0000000   0.0000000   0.0000000
 0.1100000  -2.4999400  -0.3000610   0.9999390   0.0000000   0.0000000  -0.0399024   0.0022183  -0.0022183  -0.0022183   0.0000000   0.0000000   0.0000000   0.0605000  -0.0605000  -0.0605000   0.0000000   0.0000000   0.0000000
 0.1150000  -2.4999300  -0.3000730   0.9999270   0.0000000   0.0000000  -0.0398835   0.0025348  -0.0025348  -0.0025348   0.0000000   0.0000000   0.0000000   0.0661250  -0.0661250  -0.0661250   0.0000000   0.0000000   0.0000000
 0.1200000  -2.4999100  -0.3000860   0.9999140   0.0000000   0.0000000  -0.0398619   0.0028800  -0.0028800  -0.0028800   0.0000000   0.0000000   0.0000000   0.0720000  -0.0720000  -0.0720000   0.0000000   0.0000000   0.0000000
 0.1250000  -2.4999000  -0.3001020   0.9998980   0.0000000   0.0000000  -0.0398377   0.0032552  -0.0032552  -0.0032552   0.0000000   0.0000000   0.0000000   0.0781250  -0.0781244  -0.0781250   0.0000000   0.0000000   0.0000000
 0.1300000  -2.4998800  -0.3001190   0.9998810   0.0000000   0.0000000  -0.0398106   0.0036617  -0.0036612  -0.0036617   0.0000000   0.0000000   0.0000000   0.0845000  -0.0842250  -0.0845000   0.0000000   0.0000000   0.0000000
 0.1350000  -2.4998600  -0.3001380   0.9998620   0.0000000   0.0000000  -0.0397804   0.0041006  -0.0040970  -0.0041006   0.0000000   0.0000000   0.0000000   0.0911250  -0.0900755  -0.0911250   0.0000000   0.0000000   0.0000000
 0.1400000  -2.4998400  -0.3001600   0.9998400   0.0000000   0.0000000  -0.0397470   0.0045733  -0.0045615  -0.0045733   0.0000000   0.0000000   0.0000000   0.0980000  -0.0956761  -0.0980000   0.0000000   0.0000000   0.0000000
 0.1450000  -2.4998200  -0.3001840   0.9998160   0.0000000   0.0000000  -0.0397104   0.0050810  -0.0050534  -0.0050810   0.0000000   0.0000000   0.0000000   0.1051250  -0.1010270  -0.1051250   0.0000000   0.0000000   0.0000000
 0.1500000  -2.4997900  -0.3002110   0.9997890   0.0000000   0.0000000  -0.0396703   0.0056250  -0.0055714  -0.0056250   0.0000000   0.0000000   0.0000000   0.1125000  -0.1061270  -0.1125000   0.0000000   0.0000000   0.0000000
 0.1550000  -2.4997600  -0.3002400   0.9997590   0.0000000   0.0000000  -0.0396267   0.0062065  -0.0061142  -0.0062065   0.0000000   0.0000000   0.0000000   0.1201250  -0.1109780  -0.1201250   0.0000000   0.0000000   0.0000000
 0.1600000  -2.4997300  -0.3002720   0.9997270   0.0000000   0.0000000  -0.0395795   0.0068267  -0.0066807  -0.0068267   0.0000000   0.0000000   0.0000000   0.1280000  -0.1155780  -0.1280000   0.0000000   0.0000000   0.0000000
 0.1650000  -2.4996900  -0.3003070   0.9996910   0.0000000   0.0000000  -0.0395285   0.0074869  -0.0072696  -0.0074869   0.0000000   0.0000000   0.0000000   0.1361250  -0.1199290  -0.1361250   0.0000000   0.0000000   0.0000000
 0.1700000  -2.4996500  -0.3003450   0.9996520   0.0000000   0.0000000  -0.0394738   0.0081883  -0.0078796  -0.0081883   0.0000000   0.0000000   0.0000000   0.1445000  -0.1240290  -0.1445000   0.0000000   0.0000000   0.0000000
 0.1750000  -2.4996100  -0.3003850   0.9996090   0.0000000   0.0000000  -0.0394151   0.0089323  -0.0085095  -0.0089323   0.0000000   0.0000000   0.0000000   0.1531250  -0.1278800  -0.1531250   0.0000000   0.0000000   0.0000000
 0.1800000  -2.4995600  -0.3004300   0.9995630   0.0000000   0.0000000  -0.0393526   0.0097200  -0.0091580  -0.0097200   0.0000000   0.0000000   0.0000000   0.1620000  -0.1314810  -0.1620000   0.0000000   0.0000000   0.0000000
 0.1850000  -2.4995100  -0.3004770   0.9995120   0.0000000   0.0000000  -0.0392861   0.0105527  -0.0098239  -0.0105527   0.0000000   0.0000000   0.0000000   0.1711250  -0.1348310  -0.1711250   0.0000000   0.0000000   0.0000000
 0.1900000  -2.4994600  -0.3005280   0.9994570   0.0000000   0.0000000  -0.0392156   0.0114317  -0.0105059  -0.0114317   0.0000000   0.0000000   0.0000000   0.1805000  -0.1379320  -0.1805000   0.0000000   0.0000000   0.0000000
 0.1950000  -2.4994000  -0.3005820   0.9993980   0.0000000   0.0000000  -0.0391410   0.0123581  -0.0112028  -0.0123581   0.0000000   0.0000000   0.0000000   0.1901250  -0.1407820  -0.1901250   0.0000000   0.0000000   0.0000000
 0.2000000  -2.4993300  -0.3006400   0.9993330   0.0000000   0.0000000  -0.0390624   0.0133333  -0.0119133  -0.0133333   0.0000000   0.0000000   0.0000000   0.2000000  -0.1433830  -0.2000000   0.0000000   0.0000000   0.0000000
 0.2050000  -2.4992600  -0.3007010   0.9992640   0.0000000   0.0000000  -0.0389797   0.0143585  -0.0126362  -0.0143585   0.0000000   0.0000000   0.0000000   0.2101250  -0.1457330  -0.2100440   0.0000000   0.0000000   0.0000000
 0.2100000  -2.4991900  -0.3007660   0.9991900   0.0000000   0.0000000  -0.0388930   0.0154350  -0.0133702  -0.0154334   0.0000000   0.0000000   0.0000000   0.2205000  -0.1478340  -0.2198860   0.0000000   0.0000000   0.0000000
 0.2150000  -2.4991100  -0.3008350   0.9991100   0.0000000   0.0000000  -0.0388022   0.0165640  -0.0141141  -0.0165569   0.0000000   0.0000000   0.0000000   0.2311250  -0.1496850  -0.2294770   0.0000000   0.0000000   0.0000000
 0.2200000  -2.4990200  -0.3009070   0.9990240   0.0000000   0.0000000  -0.0387074   0.0177467  -0.0148666  -0.0177277   0.0000000   0.0000000   0.0000000   0.2420000  -0.1512850  -0.2388180   0.0000000   0.0000000   0.0000000
 0.2250000  -2.4989300  -0.3009840   0.9989320   0.0000000   0.0000000  -0.0386086   0.0189844  -0.0156265  -0.0189447   0.0000000   0.0000000   0.0000000   0.2531250  -0.1526360  -0.2479090   0.0000000   0.0000000   0.0000000
 0.2300000  -2.4988300  -0.3010640   0.9988340   0.0000000   0.0000000  -0.0385058   0.0202783  -0.0163926  -0.0202064   0.0000000   0.0000000   0.0000000   0.2645000  -0.1537360  -0.2567500   0.0000000   0.0000000   0.0000000
 0.2350000  -2.4987300  -0.3011480   0.9987300   0.0000000   0.0000000  -0.0383991   0.0216298  -0.0171635  -0.0215117   0.0000000   0.0000000   0.0000000   0.2761250  -0.1545870  -0.2653410   0.0000000   0.0000000   0.0000000
 0.2400000  -2.4986200  -0.3012350   0.9986190   0.0000000   0.0000000  -0.0382886   0.0230400  -0.0179380  -0.0228594   0.0000000   0.0000000   0.0000000   0.2880000  -0.1551870  -0.2736820   0.0000000   0.0000000   0.0000000
 0.2450000  -2.4985000  -0.3013270   0.9985020   0.0000000   0.0000000  -0.0381744   0.0245102  -0.0187149  -0.0242482   0.0000000   0.0000000   0.0000000   0.3001250  -0.1555380  -0.2817730   0.0000000   0.0000000   0.0000000
 0.2500000  -2.4983700  -0.3014230   0.9983770   0.0000000   0.0000000  -0.0380564   0.0260417  -0.0194930  -0.0256767   0.0000000   0.0000000   0.0000000   0.3125000  -0.1556380  -0.2896140   0.0000000   0.0000000   0.0000000
 0.2550000  -2.4982400  -0.3015220   0.9982450   0.0000000   0.0000000  -0.0379348   0.0276356  -0.0202709  -0.0271439   0.0000000   0.0000000   0.0000000   0.3251250  -0.1554890  -0.2972060   0.0000000   0.0000000   0.0000000
 0.2600000  -2.4981000  -0.3016250   0.9981050   0.0000000   0.0000000  -0.0378098   0.0292933  -0.0210475  -0.0286484   0.0000000   0.0000000   0.0000000   0.3380000  -0.1550900  -0.3045470   0.0000000   0.0000000   0.0000000
 0.2650000  -2.4979500  -0.3017320   0.9979580   0.0000000   0.0000000  -0.0376813   0.0310160  -0.0218214  -0.0301889   0.0000000   0.0000000   0.0000000   0.3511250  -0.1544400  -0.3116380   0.0000000   0.0000000   0.0000000
 0.2700000  -2.4977900  -0.3018430   0.9978030   0.0000000   0.0000000  -0.0375496   0.0328050  -0.0225914  -0.0317643   0.0000000   0.0000000   0.0000000   0.3645000  -0.1535410  -0.3184790   0.0000000   0.0000000   0.0000000
 0.2750000  -2.4976200  -0.3019580   0.9976400   0.0000000   0.0000000  -0.0374148   0.0346615  -0.0233564  -0.0333733   0.0000000   0.0000000   0.0000000   0.3781250  -0.1523910  -0.3250700   0.0000000   0.0000000   0.0000000
 0.2800000  -2.4974400  -0.3020770   0.9974700   0.0000000   0.0000000  -0.0372770   0.0365867  -0.0241149  -0.0350146   0.0000000   0.0000000   0.0000000   0.3920000  -0.1509920  -0.3314110   0.0000000   0.0000000   0.0000000
 0.2850000  -2.4972500  -0.3021990   0.9972900   0.0000000   0.0000000  -0.0371363   0.0385817  -0.0248659  -0.0366870   0.0000000   0.0000000   0.0000000   0.4059770  -0.1493420  -0.3375020   0.0000000   0.0000000   0.0000000
 0.2900000  -2.4970500  -0.3023260   0.9971030   0.0000000   0.0000000  -0.0369930   0.0406460  -0.0256080  -0.0383892   0.0000000   0.0000000   0.0000000   0.4197170  -0.1474430  -0.3433430   0.0000000   0.0000000   0.0000000
 0.2950000  -2.4968400  -0.3024560   0.9969060   0.0000000   0.0000000  -0.0368472   0.0427784  -0.0263399  -0.0401200   0.0000000   0.0000000   0.0000000   0.4332070  -0.1452940  -0.3489350   0.0000000   0.0000000   0.0000000
 0.3000000  -2.4966300  -0.3025890   0.9967010   0.0000000   0.0000000  -0.0366991   0.0449777  -0.0270605  -0.0418781   0.0000000   0.0000000   0.0000000   0.4464480  -0.1428940  -0.3542760   0.0000000   0.0000000   0.0000000
 0.3050000  -2.4963900  -0.3027260   0.9964880   0.0000000   0.0000000  -0.0365488   0.0472425  -0.0277684  -0.0436624   0.0000000   0.0000000   0.0000000   0.4594380  -0.1402450  -0.3593670   0.0000000   0.0000000   0.0000000
 0.3100000  -2.4961500  -0.3028670   0.9962650   0.0000000   0.0000000  -0.0363966   0.0495716  -0.0284625  -0.0454714   0.0000000   0.0000000   0.0000000   0.4721780  -0.1373450  -0.3642080   0.0000000   0.0000000   0.0000000
 0.3150000  -2.4959000  -0.3030110   0.9960330   0.0000000   0.0000000  -0.0362426   0.0519639  -0.0291415  -0.0473040   0.0000000   0.0000000   0.0000000   0.4846680  -0.1341960  -0.3687990   0.0000000   0.0000000   0.0000000
 0.3200000  -2.4956300  -0.3031580   0.9957920   0.0000000   0.0000000  -0.0360871   0.0544179  -0.0298040  -0.0491590   0.0000000   0.0000000   0.0000000   0.4969090  -0.1307960  -0.3731400   0.0000000   0.0000000   0.0000000
 0.3250000  -2.4953500  -0.3033090   0.9955410   0.0000000   0.0000000  -0.0359302   0.0569325  -0.0304490  -0.0510350   0.0000000   0.0000000   0.0000000   0.5088990  -0.1271470  -0.3772310   0.0000000   0.0000000   0.0000000
 0.3300000  -2.4950600  -0.3034630   0.9952810   0.0000000   0.0000000  -0.0357721   0.0595065  -0.0310751  -0.0529309   0.0000000   0.0000000   0.0000000   0.5206390  -0.1232470  -0.3810720   0.0000000   0.0000000   0.0000000
 0.3350000  -2.4947600  -0.3036190   0.9950120   0.0000000   0.0000000  -0.0356129   0.0621385  -0.0316811  -0.0548453   0.0000000   0.0000000   0.0000000   0.5321290  -0.1190980  -0.3846630   0.0000000   0.0000000   0.0000000
 0.3400000  -2.4944400  -0.3037790   0.9947330   0.0000000   0.0000000  -0.0354528   0.0648274  -0.0322657  -0.0567771   0.0000000   0.0000000   0.0000000   0.5433700  -0.1146990  -0.3880050   0.0000000   0.0000000   0.0000000
 0.3450000  -2.4941100  -0.3039420   0.9944440   0.0000000   0.0000000  -0.0352919   0.0675718  -0.0328276  -0.0587249   0.0000000   0.0000000   0.0000000   0.5543600  -0.1100490  -0.3910960   0.0000000   0.0000000   0.0000000
 0.3500000  -2.4937700  -0.3041080   0.9941450   0.0000000   0.0000000  -0.0351303   0.0703705  -0.0333657  -0.0606876   0.0000000   0.0000000   0.0000000   0.5651000  -0.1051500  -0.3939370   0.0000000   0.0000000   0.0000000
 0.3550000  -2.4934100  -0.3042760   0.9938370   0.0000000   0.0000000  -0.0349681   0.0732224  -0.0338787  -0.0626639   0.0000000   0.0000000   0.0000000   0.5755900  -0.1000000  -0.3965280   0.0000000   0.0000000   0.0000000
 0.3600000  -2.4930300  -0.3044460   0.9935190   0.0000000   0.0000000  -0.0348055   0.0761260  -0.0343653  -0.0646525   0.0000000   0.0000000   0.0000000   0.5858300  -0.0946008  -0.3988690   0.0000000   0.0000000   0.0000000
 0.3650000  -2.4926500  -0.3046190   0.9931910   0.0000000   0.0000000  -0.0346425   0.0790803  -0.0348243  -0.0666522   0.0000000   0.0000000   0.0000000   0.5958210  -0.0889514  -0.4009600   0.0000000   0.0000000   0.0000000
 0.3700000  -2.4922400  -0.3047950   0.9928520   0.0000000   0.0000000  -0.0344792   0.0820838  -0.0352544  -0.0686617   0.0000000   0.0000000   0.0000000   0.6055610  -0.0830519  -0.4028010   0.0000000   0.0000000   0.0000000
 0.3750000  -2.4918200  -0.3049720   0.9925040   0.0000000   0.0000000  -0.0343157   0.0851354  -0.0356544  -0.0706798   0.0000000   0.0000000   0.0000000   0.6150510  -0.0769079  -0.4043920   0.0000000   0.0000000   0.0000000
 0.3800000  -2.4913900  -0.3051510   0.9921450   0.0000000   0.0000000  -0.0341520   0.0882339  -0.0360237  -0.0727052   0.0000000   0.0000000   0.0000000   0.6242910  -0.0708318  -0.4057340   0.0000000   0.0000000   0.0000000
 0.3850000  -2.4909400  -0.3053320   0.9917770   0.0000000   0.0000000  -0.0339882   0.0913779  -0.0363631  -0.0747367   0.0000000   0.0000000   0.0000000   0.6332820  -0.0650056  -0.4068250   0.0000000   0.0000000   0.0000000
 0.3900000  -2.4904800  -0.3055150   0.9913980   0.0000000   0.0000000  -0.0338243   0.0945663  -0.0366741  -0.0767730   0.0000000   0.0000000   0.0000000   0.6420220  -0.0594295  -0.4076660   0.0000000   0.0000000   0.0000000
 0.3950000  -2.4900000  -0.3056990   0.9910090   0.0000000   0.0000000  -0.0336604   0.0977977  -0.0369579  -0.0788129   0.0000000   0.0000000   0.0000000   0.6505120  -0.0541034  -0.4082570   0.0000000   0.0000000   0.0000000
 0.4000000  -2.4895000  -0.3058840   0.9906100   0.0000000   0.0000000  -0.0334965   0.1010710  -0.0372156  -0.0808552   0.0000000   0.0000000   0.0000000   0.6587520  -0.0490273  -0.4085980   0.0000000   0.0000000   0.0000000
 0.4050000  -2.4889900  -0.3060710   0.9902010   0.0000000   0.0000000  -0.0333326   0.1043850  -0.0374485  -0.0828985   0.0000000   0.0000000   0.0000000   0.6667430  -0.0442011  -0.4086890   0.0000000   0.0000000   0.0000000
 0.4100000  -2.4884600  -0.3062590   0.9897810   0.0000000   0.0000000  -0.0331687   0.1077380  -0.0376580  -0.0849416   0.0000000   0.0000000   0.0000000   0.6744830  -0.0396250  -0.4085300   0.0000000   0.0000000   0.0000000
 0.4150000  -2.4879100  -0.3064470   0.9893510   0.0000000   0.0000000  -0.0330048   0.1111290  -0.0378452  -0.0869834   0.0000000   0.0000000   0.0000000   0.6819730  -0.0352989  -0.4081210   0.0000000   0.0000000   0.0000000
 0.4200000  -2.4873400  -0.3066370   0.9889110   0.0000000   0.0000000  -0.0328409   0.1145570  -0.0380114  -0.0890224   0.0000000   0.0000000   0.0000000   0.6892130  -0.0312228  -0.4074620   0.0000000   0.0000000   0.0000000
 0.4250000  -2.4867600  -0.3068270   0.9884610   0.0000000   0.0000000  -0.0326770   0.1180210  -0.0381579  -0.0910576   0.0000000   0.0000000   0.0000000   0.6962030  -0.0273966  -0.4065540   0.0000000   0.0000000   0.0000000
 0.4300000  -2.4861600  -0.3070190   0.9880010   0.0000000   0.0000000  -0.0325131   0.1215190  -0.0382858  -0.0930876   0.0000000   0.0000000   0.0000000   0.7029440  -0.0238205  -0.4053950   0.0000000   0.0000000   0.0000000
 0.4350000  -2.4855500  -0.3072100   0.9875300   0.0000000   0.0000000  -0.0323491   0.1250500  -0.0383965  -0.0951111   0.0000000   0.0000000   0.0000000   0.7094340  -0.0204944  -0.4039860   0.0000000   0.0000000   0.0000000
 0.4400000  -2.4849100  -0.3074020   0.9870490   0.0000000   0.0000000  -0.0321852   0.1286130  -0.0384912  -0.0971270   0.0000000   0.0000000   0.0000000   0.7156740  -0.0174183  -0.4023270   0.0000000   0.0000000   0.0000000
 0.4450000  -2.4842600  -0.3075950   0.9865590   0.0000000   0.0000000  -0.0320213   0.1322060  -0.0385711  -0.0991340   0.0000000   0.0000000   0.0000000   0.7216640  -0.0145921  -0.4004180   0.0000000   0.0000000   0.0000000
 0.4500000  -2.4835900  -0.3077880   0.9860580   0.0000000   0.0000000  -0.0318574   0.1358290  -0.0386375  -0.1011310   0.0000000   0.0000000   0.0000000   0.7274050  -0.0120160  -0.3982590   0.0000000   0.0000000   0.0000000
 0.4550000  -2.4829000  -0.3079810   0.9855480   0.0000000   0.0000000  -0.0316935   0.1394800  -0.0386917  -0.1031160   0.0000000   0.0000000   0.0000000   0.7328950  -0.0096899  -0.3958500   0.0000000   0.0000000   0.0000000
 0.4600000  -2.4822000  -0.3081750   0.9850270   0.0000000   0.0000000  -0.0315296   0.1431580  -0.0387348  -0.1050890   0.0000000   0.0000000   0.0000000   0.7381350  -0.0076138  -0.3931910   0.0000000   0.0000000   0.0000000
 0.4650000  -2.4814700  -0.3083690   0.9844970   0.0000000   0.0000000  -0.0313657   0.1468610  -0.0387682  -0.1070480   0.0000000   0.0000000   0.0000000   0.7431250  -0.0057877  -0.3902830   0.0000000   0.0000000   0.0000000
 0.4700000  -2.4807300  -0.3085630   0.9839570   0.0000000   0.0000000  -0.0312018   0.1505880  -0.0387931  -0.1089910   0.0000000   0.0000000   0.0000000   0.7478660  -0.0042115  -0.3871240   0.0000000   0.0000000   0.0000000
 0.4750000  -2.4799700  -0.3087570   0.9834070   0.0000000   0.0000000  -0.0310378   0.1543390  -0.0388107  -0.1109180   0.0000000   0.0000000   0.0000000   0.7523560  -0.0028854  -0.3837150   0.0000000   0.0000000   0.0000000
 0.4800000  -2.4791800  -0.3089510   0.9828470   0.0000000   0.0000000  -0.0308739   0.1581120  -0.0388224  -0.1128280   0.0000000   0.0000000   0.0000000   0.7565960  -0.0018093  -0.3800560   0.0000000   0.0000000   0.0000000
 0.4850000  -2.4783800  -0.3091450   0.9822790   0.0000000   0.0000000  -0.0307100   0.1619050  -0.0388292  -0.1147190   0.0000000   0.0000000   0.0000000   0.7605860  -0.0009831  -0.3761470   0.0000000   0.0000000   0.0000000
 0.4900000  -2.4775700  -0.3093390   0.9817000   0.0000000   0.0000000  -0.0305461   0.1657170  -0.0388326  -0.1165890   0.0000000   0.0000000   0.0000000   0.7643260  -0.0004070  -0.3719880   0.0000000   0.0000000   0.0000000
 0.4950000  -2.4767300  -0.3095330   0.9811130   0.0000000   0.0000000  -0.0303822   0.1695480  -0.0388337  -0.1184380   0.0000000   0.0000000   0.0000000   0.7678170  -0.0000809  -0.3675790   0.0000000   0.0000000   0.0000000
 0.5000000  -2.4758700  -0.3097270   0.9805160   0.0000000   0.0000000  -0.0302183   0.1733950  -0.0388338  -0.1202640   0.0000000   0.0000000   0.0000000   0.7710570   0.0000029  -0.3629200   0.0000000   0.0000000   0.0000000
 0.5050000  -2.4749900  -0.3099220   0.9799100   0.0000000   0.0000000  -0.0300544   0.1772580  -0.0388335  -0.1220670   0.0000000   0.0000000   0.0000000   0.7740470   0.0001658  -0.3580110   0.0000000   0.0000000   0.0000000
 0.5100000  -2.4741000  -0.3101160   0.9792950   0.0000000   0.0000000  -0.0298904   0.1811350  -0.0388318  -0.1238440   0.0000000   0.0000000   0.0000000   0.7767870   0.0005787  -0.3528530   0.0000000   0.0000000   0.0000000
 0.5150000  -2.4731800  -0.3103100   0.9786720   0.0000000   0.0000000  -0.0297265   0.1850250  -0.0388273  -0.1255950   0.0000000   0.0000000   0.0000000   0.7792780   0.0012416  -0.3474440   0.0000000   0.0000000   0.0000000
 0.5200000  -2.4722500  -0.3105040   0.9780390   0.0000000   0.0000000  -0.0295626   0.1889270  -0.0388189  -0.1273180   0.0000000   0.0000000   0.0000000   0.7815180   0.0021545  -0.3417850   0.0000000   0.0000000   0.0000000
 0.5250000  -2.4712900  -0.3106980   0.9773990   0.0000000   0.0000000  -0.0293987   0.1928400  -0.0388054  -0.1290120   0.0000000   0.0000000   0.0000000   0.7835080   0.0033174  -0.3358760   0.0000000   0.0000000   0.0000000
 0.5300000  -2.4703200  -0.3108920   0.9767490   0.0000000   0.0000000  -0.0292348   0.1967620  -0.0387853  -0.1306760   0.0000000   0.0000000   0.0000000   0.7852480   0.0047303  -0.3297170   0.0000000   0.0000000   0.0000000
 0.5350000  -2.4693200  -0.3110860   0.9760920   0.0000000   0.0000000  -0.0290709   0.2006920  -0.0387576  -0.1323090   0.0000000   0.0000000   0.0000000   0.7867390   0.0063932  -0.3233080   0.0000000   0.0000000   0.0000000
 0.5400000  -2.4683100  -0.3112800   0.9754260   0.0000000   0.0000000  -0.0289070   0.2046290  -0.0387210  -0.1339090   0.0000000   0.0000000   0.0000000   0.7879790   0.0083061  -0.3166490   0.0000000   0.0000000   0.0000000
 0.5450000  -2.4672800  -0.3114730   0.9747530   0.0000000   0.0000000  -0.0287431   0.2085710  -0.0386742  -0.1354750   0.0000000   0.0000000   0.0000000   0.7889690   0.0104690  -0.3097400   0.0000000   0.0000000   0.0000000
 0.5500000  -2.4662300  -0.3116660   0.9740720   0.0000000   0.0000000  -0.0285792   0.2125180  -0.0386159  -0.1370060   0.0000000   0.0000000   0.0000000   0.7897090   0.0128819  -0.3025820   0.0000000   0.0000000   0.0000000
 0.5550000  -2.4651500  -0.3118590   0.9733830   0.0000000   0.0000000  -0.0284152   0.2164680  -0.0385449  -0.1385010   0.0000000   0.0000000   0.0000000   0.7902000   0.0155448  -0.2951730   0.0000000   0.0000000   0.0000000
 0.5600000  -2.4640600  -0.3120520   0.9726870   0.0000000   0.0000000  -0.0282513   0.2204200  -0.0384600  -0.1399570   0.0000000   0.0000000   0.0000000   0.7904400   0.0184578  -0.2875140   0.0000000   0.0000000   0.0000000
 0.5650000  -2.4629500  -0.3122440   0.9719830   0.0000000   0.0000000  -0.0280874   0.2243720  -0.0383599  -0.1413750   0.0000000   0.0000000   0.0000000   0.7904300   0.0216207  -0.2796050   0.0000000   0.0000000   0.0000000
 0.5700000  -2.4618200  -0.3124350   0.9712730   0.0000000   0.0000000  -0.0279235   0.2283240  -0.0382434  -0.1427530   0.0000000   0.0000000   0.0000000   0.7901700   0.0250336  -0.2714460   0.0000000   0.0000000   0.0000000
 0.5750000  -2.4606700  -0.3126260   0.9705560   0.0000000   0.0000000  -0.0277596   0.2322730  -0.0381092  -0.1440890   0.0000000   0.0000000   0.0000000   0.7896600   0.0286965  -0.2630370   0.0000000   0.0000000   0.0000000
 0.5800000  -2.4594900  -0.3128160   0.9698320   0.0000000   0.0000000  -0.0275957   0.2362200  -0.0379560  -0.1453830   0.0000000   0.0000000   0.0000000   0.7889010   0.0326094  -0.2543780   0.0000000   0.0000000   0.0000000
 0.5850000  -2.4583000  -0.3130060   0.9691020   0.0000000   0.0000000  -0.0274318   0.2401620  -0.0377827  -0.1466330   0.0000000   0.0000000   0.0000000   0.7878910   0.0367723  -0.2454690   0.0000000   0.0000000   0.0000000
 0.5900000  -2.4570900  -0.3131940   0.9683660   0.0000000   0.0000000  -0.0272679   0.2440980  -0.0375879  -0.1478370   0.0000000   0.0000000   0.0000000   0.7866310   0.0411852  -0.2363100   0.0000000   0.0000000   0.0000000
 0.5950000  -2.4558600  -0.3133820   0.9676240   0.0000000   0.0000000  -0.0271039   0.2480280  -0.0373704  -0.1489950   0.0000000   0.0000000   0.0000000   0.7851210   0.0458481  -0.2269020   0.0000000   0.0000000   0.0000000
 0.6000000  -2.4546100  -0.3135680   0.9668760   0.0000000   0.0000000  -0.0269400   0.2519490  -0.0371290  -0.1501060   0.0000000   0.0000000   0.0000000   0.7833620   0.0507610  -0.2172430   0.0000000   0.0000000   0.0000000
 0.6050000  -2.4533400  -0.3137530   0.9661230   0.0000000   0.0000000  -0.0267761   0.2558610  -0.0368624  -0.1511670   0.0000000   0.0000000   0.0000000   0.7813520   0.0559239  -0.2073340   0.0000000   0.0000000   0.0000000
 0.6100000  -2.4520500  -0.3139360   0.9653640   0.0000000   0.0000000  -0.0266122   0.2597620  -0.0365693  -0.1521790   0.0000000   0.0000000   0.0000000   0.7790920   0.0613368  -0.1972990   0.0000000   0.0000000   0.0000000
 0.6150000  -2.4507500  -0.3141190   0.9646010   0.0000000   0.0000000  -0.0264483   0.2636510  -0.0362486  -0.1531410   0.0000000   0.0000000   0.0000000   0.7765820   0.0669997  -0.1874910   0.0000000   0.0000000   0.0000000
 0.6200000  -2.4494200  -0.3142990   0.9638330   0.0000000   0.0000000  -0.0262844   0.2675280  -0.0358989  -0.1540540   0.0000000   0.0000000   0.0000000   0.7738230   0.0729126  -0.1779340   0.0000000   0.0000000   0.0000000
 0.6250000  -2.4480700  -0.3144770   0.9630610   0.0000000   0.0000000  -0.0261205   0.2713890  -0.0355190  -0.1549210   0.0000000   0.0000000   0.0000000   0.7708130   0.0790755  -0.1686270   0.0000000   0.0000000   0.0000000
 0.6300000  -2.4467000  -0.3146540   0.9622840   0.0000000   0.0000000  -0.0259566   0.2752350  -0.0351077  -0.1557410   0.0000000   0.0000000   0.0000000   0.7675530   0.0854885  -0.1595700   0.0000000   0.0000000   0.0000000
 0.6350000  -2.4453200  -0.3148280   0.9615030   0.0000000   0.0000000  -0.0257926   0.2790640  -0.0346637  -0.1565170   0.0000000   0.0000000   0.0000000   0.7640430   0.0921514  -0.1507620   0.0000000   0.0000000   0.0000000
 0.6400000  -2.4439100  -0.3150010   0.9607190   0.0000000   0.0000000  -0.0256287   0.2828750  -0.0341858  -0.1572490   0.0000000   0.0000000   0.0000000   0.7602830   0.0990643  -0.1422050   0.0000000   0.0000000   0.0000000
 0.6450000  -2.4424900  -0.3151700   0.9599310   0.0000000   0.0000000  -0.0254648   0.2866670  -0.0336727  -0.1579390   0.0000000   0.0000000   0.0000000   0.7562740   0.1062270  -0.1338980   0.0000000   0.0000000   0.0000000
 0.6500000  -2.4410500  -0.3153370   0.9591400   0.0000000   0.0000000  -0.0253009   0.2904380  -0.0331231  -0.1585880   0.0000000   0.0000000   0.0000000   0.7520140   0.1136400  -0.1258410   0.0000000   0.0000000   0.0000000
 0.6550000  -2.4395900  -0.3155010   0.9583450   0.0000000   0.0000000  -0.0251370   0.2941870  -0.0325359  -0.1591980   0.0000000   0.0000000   0.0000000   0.7475040   0.1213030  -0.1180330   0.0000000   0.0000000   0.0000000
 0.6600000  -2.4381000  -0.3156630   0.9575480   0.0000000   0.0000000  -0.0249731   0.2979120  -0.0319097  -0.1597690   0.0000000   0.0000000   0.0000000   0.7427440   0.1292160  -0.1104760   0.0000000   0.0000000   0.0000000
 0.6650000  -2.4366100  -0.3158200   0.9567470   0.0000000   0.0000000  -0.0248092   0.3016140  -0.0312433  -0.1603030   0.0000000   0.0000000   0.0000000   0.7377350   0.1373790  -0.1031690   0.0000000   0.0000000   0.0000000
 0.6700000  -2.4350900  -0.3159750   0.9559450   0.0000000   0.0000000  -0.0246453   0.3052890  -0.0305355  -0.1608010   0.0000000   0.0000000   0.0000000   0.7324750   0.1457920  -0.0961118   0.0000000   0.0000000   0.0000000
 0.6750000  -2.4335500  -0.3161260   0.9551390   0.0000000   0.0000000  -0.0244813   0.3089380  -0.0297850  -0.1612650   0.0000000   0.0000000   0.0000000   0.7269650   0.1544550  -0.0893045   0.0000000   0.0000000   0.0000000
 0.6800000  -2.4320000  -0.3162730   0.9543320   0.0000000   0.0000000  -0.0243174   0.3125580  -0.0289905  -0.1616950   0.0000000   0.0000000   0.0000000   0.7212050   0.1633680  -0.0827473   0.0000000   0.0000000   0.0000000
 0.6850000  -2.4304300  -0.3164160   0.9535230   0.0000000   0.0000000  -0.0241535   0.3161500  -0.0281509  -0.1620930   0.0000000   0.0000000   0.0000000   0.7151960   0.1725300  -0.0764401   0.0000000   0.0000000   0.0000000
 0.6900000  -2.4288400  -0.3165540   0.9527110   0.0000000   0.0000000  -0.0239896   0.3197100  -0.0272648  -0.1624600   0.0000000   0.0000000   0.0000000   0.7089360   0.1819430  -0.0703828   0.0000000   0.0000000   0.0000000
 0.6950000  -2.4272300  -0.3166880   0.9518980   0.0000000   0.0000000  -0.0238257   0.3232380  -0.0263310  -0.1627970   0.0000000   0.0000000   0.0000000   0.7024260   0.1916060  -0.0645756   0.0000000   0.0000000   0.0000000
 0.7000000  -2.4256100  -0.3168170   0.9510830   0.0000000   0.0000000  -0.0236618   0.3267340  -0.0253483  -0.1631060   0.0000000   0.0000000   0.0000000   0.6956660   0.2015190  -0.0590184   0.0000000   0.0000000   0.0000000
 0.7050000  -2.4239600  -0.3169420   0.9502670   0.0000000   0.0000000  -0.0234979   0.3301950  -0.0243154  -0.1633870   0.0000000   0.0000000   0.0000000   0.6886560   0.2116820  -0.0537111   0.0000000   0.0000000   0.0000000
 0.7100000  -2.4223000  -0.3170600   0.9494490   0.0000000   0.0000000  -0.0233340   0.3336200  -0.0232311  -0.1636430   0.0000000   0.0000000   0.0000000   0.6813970   0.2220950  -0.0486539   0.0000000   0.0000000   0.0000000
 0.7150000  -2.4206300  -0.3171740   0.9486310   0.0000000   0.0000000  -0.0231700   0.3370080  -0.0220940  -0.1638740   0.0000000   0.0000000   0.0000000   0.6738870   0.2327580  -0.0438466   0.0000000   0.0000000   0.0000000
 0.7200000  -2.4189300  -0.3172810   0.9478110   0.0000000   0.0000000  -0.0230061   0.3403580  -0.0209031  -0.1640820   0.0000000   0.0000000   0.0000000   0.6661270   0.2436710  -0.0392894   0.0000000   0.0000000   0.0000000
 0.7250000  -2.4172200  -0.3173830   0.9469900   0.0000000   0.0000000  -0.0228422   0.3436690  -0.0196569  -0.1642680   0.0000000   0.0000000   0.0000000   0.6581170   0.2548340  -0.0349822   0.0000000   0.0000000   0.0000000
 0.7300000  -2.4155000  -0.3174780   0.9461680   0.0000000   0.0000000  -0.0226783   0.3469390  -0.0183543  -0.1644320   0.0000000   0.0000000   0.0000000   0.6498580   0.2662470  -0.0309249   0.0000000   0.0000000   0.0000000
 0.7350000  -2.4137500  -0.3175660   0.9453460   0.0000000   0.0000000  -0.0225144   0.3501670  -0.0169940  -0.1645770   0.0000000   0.0000000   0.0000000   0.6413480   0.2779090  -0.0271177   0.0000000   0.0000000   0.0000000
 0.7400000  -2.4120000  -0.3176480   0.9445220   0.0000000   0.0000000  -0.0223505   0.3533520  -0.0155748  -0.1647040   0.0000000   0.0000000   0.0000000   0.6325880   0.2898220  -0.0235605   0.0000000   0.0000000   0.0000000
 0.7450000  -2.4102200  -0.3177220   0.9436990   0.0000000   0.0000000  -0.0221866   0.3564930  -0.0140954  -0.1648130   0.0000000   0.0000000   0.0000000   0.6235780   0.3019850  -0.0202532   0.0000000   0.0000000   0.0000000
 0.7500000  -2.4084300  -0.3177880   0.9428740   0.0000000   0.0000000  -0.0220227   0.3595880  -0.0125545  -0.1649070   0.0000000   0.0000000   0.0000000   0.6143190   0.3143980  -0.0171960   0.0000000   0.0000000   0.0000000
 0.7550000  -2.4066300  -0.3178470   0.9420490   0.0000000   0.0000000  -0.0218587   0.3626360  -0.0109510  -0.1649860   0.0000000   0.0000000   0.0000000   0.6048090   0.3270610  -0.0143888   0.0000000   0.0000000   0.0000000
 0.7600000  -2.4048000  -0.3178980   0.9412240   0.0000000   0.0000000  -0.0216948   0.3656350  -0.0092835  -0.1650510   0.0000000   0.0000000   0.0000000   0.5950490   0.3399740  -0.0118315   0.0000000   0.0000000   0.0000000
 0.7650000  -2.4029700  -0.3179400   0.9403990   0.0000000   0.0000000  -0.0215309   0.3685860  -0.0075508  -0.1651050   0.0000000   0.0000000   0.0000000   0.5850390   0.3531370  -0.0095243   0.0000000   0.0000000   0.0000000
 0.7700000  -2.4011200  -0.3179730   0.9395730   0.0000000   0.0000000  -0.0213670   0.3714850  -0.0057517  -0.1651470   0.0000000   0.0000000   0.0000000   0.5747800   0.3665500  -0.0074671   0.0000000   0.0000000   0.0000000
 0.7750000  -2.3992500  -0.3179970   0.9387480   0.0000000   0.0000000  -0.0212031   0.3743330  -0.0038849  -0.1651800   0.0000000   0.0000000   0.0000000   0.5642700   0.3802130  -0.0056598   0.0000000   0.0000000   0.0000000
 0.7800000  -2.3973800  -0.3180120   0.9379220   0.0000000   0.0000000  -0.0210392   0.3771280  -0.0019492  -0.1652040   0.0000000   0.0000000   0.0000000   0.5535100   0.3941260  -0.0041026   0.0000000   0.0000000   0.0000000
 0.7850000  -2.3954800  -0.3180170   0.9370960   0.0000000   0.0000000  -0.0208753   0.3798680   0.0000568  -0.1652210   0.0000000   0.0000000   0.0000000   0.5425000   0.4082890  -0.0027954   0.0000000   0.0000000   0.0000000
 0.7900000  -2.3935800  -0.3180110   0.9362690   0.0000000   0.0000000  -0.0207114   0.3825520   0.0021341  -0.1652320   0.0000000   0.0000000   0.0000000   0.5312400   0.4227010  -0.0017381   0.0000000   0.0000000   0.0000000
 0.7950000  -2.3916600  -0.3179950   0.9354430   0.0000000   0.0000000  -0.0205475   0.3851800   0.0042842  -0.1652390   0.0000000   0.0000000   0.0000000   0.5197310   0.4373640  -0.0009309   0.0000000   0.0000000   0.0000000
 0.8000000  -2.3897300  -0.3179680   0.9346170   0.0000000   0.0000000  -0.0203835   0.3877490   0.0065082  -0.1652420   0.0000000   0.0000000   0.0000000   0.5079710   0.4522770  -0.0003737   0.0000000   0.0000000   0.0000000
 0.8050000  -2.3877800  -0.3179300   0.9337910   0.0000000   0.0000000  -0.0202196   0.3902590   0.0088074  -0.1652430   0.0000000   0.0000000   0.0000000   0.4959610   0.4674400  -0.0000664   0.0000000   0.0000000   0.0000000
 0.8100000  -2.3858200  -0.3178800   0.9329650   0.0000000   0.0000000  -0.0200557   0.3927080   0.0111830  -0.1652430   0.0000000   0.0000000   0.0000000   0.4837010   0.4828530  -0.0000000   0.0000000   0.0000000   0.0000000
 0.8150000  -2.3838500  -0.3178180   0.9321380   0.0000000   0.0000000  -0.0198918   0.3950960   0.0136363  -0.1652430   0.0000000   0.0000000   0.0000000   0.4711920   0.4985160  -0.0000000   0.0000000   0.0000000   0.0000000
 0.8200000  -2.3818700  -0.3177440   0.9313120   0.0000000   0.0000000  -0.0197279   0.3974200   0.0161686  -0.1652430   0.0000000   0.0000000   0.0000000   0.4584320   0.5144290  -0.0000000   0.0000000   0.0000000   0.0000000
 0.8250000  -2.3798800  -0.3176560   0.9304860   0.0000000   0.0000000  -0.0195640   0.3996790   0.0187810  -0.1652430   0.0000000   0.0000000   0.0000000   0.4454220   0.5305920  -0.0000000   0.0000000   0.0000000   0.0000000
 0.8300000  -2.3778800  -0.3175560   0.9296600   0.0000000   0.0000000  -0.0194001   0.4018730   0.0214749  -0.1652430   0.0000000   0.0000000   0.0000000   0.4321620   0.5470050  -0.0000000   0.0000000   0.0000000   0.0000000
 0.8350000  -2.3758600  -0.3174410   0.9288340   0.0000000   0.0000000  -0.0192362   0.4040010   0.0242515  -0.1652430   0.0000000   0.0000000   0.0000000   0.4186530   0.5636680  -0.0000000   0.0000000   0.0000000   0.0000000
 0.8400000  -2.3738400  -0.3173130   0.9280070   0.0000000   0.0000000  -0.0190722   0.4060600   0.0271120  -0.1652430   0.0000000   0.0000000   0.0000000   0.4048930   0.5805810  -0.0000000   0.0000000   0.0000000   0.0000000
 0.8450000  -2.3718000  -0.3171700   0.9271810   0.0000000   0.0000000  -0.0189083   0.4080490   0.0300577  -0.1652430   0.0000000   0.0000000   0.0000000   0.3909070   0.5977430  -0.0000000   0.0000000   0.0000000   0.0000000
 0.8500000  -2.3697500  -0.3170120   0.9263550   0.0000000   0.0000000  -0.0187444   0.4099690   0.0330899  -0.1652430   0.0000000   0.0000000   0.0000000   0.3770510   0.6151560  -0.0000000   0.0000000   0.0000000   0.0000000
 0.8550000  -2.3677000  -0.3168390   0.9255290   0.0000000   0.0000000  -0.0185805   0.4118200   0.0362097  -0.1652430   0.0000000   0.0000000   0.0000000   0.3634460   0.6328190  -0.0000000   0.0000000   0.0000000   0.0000000
 0.8600000  -2.3656400  -0.3166500   0.9247020   0.0000000   0.0000000  -0.0184166   0.4136040   0.0394185  -0.1652430   0.0000000   0.0000000   0.0000000   0.3500900   0.6507320  -0.0000000   0.0000000   0.0000000   0.0000000
 0.8650000  -2.3635600  -0.3164450   0.9238760   0.0000000   0.0000000  -0.0182527   0.4153210   0.0427174  -0.1652430   0.0000000   0.0000000   0.0000000   0.3369850   0.6688950  -0.0000000   0.0000000   0.0000000   0.0000000
 0.8700000  -2.3614800  -0.3162230   0.9230500   0.0000000   0.0000000  -0.0180888   0.4169740   0.0461078  -0.1652430   0.0000000   0.0000000   0.0000000   0.3241290   0.6873080  -0.0000000   0.0000000   0.0000000   0.0000000
 0.8750000  -2.3593900  -0.3159840   0.9222240   0.0000000   0.0000000  -0.0179249   0.4185630   0.0495909  -0.1652430   0.0000000   0.0000000   0.0000000   0.3115240   0.7059700  -0.0000000   0.0000000   0.0000000   0.0000000
 0.8800000  -2.3573000  -0.3157270   0.9213980   0.0000000   0.0000000  -0.0177609   0.4200900   0.0531675  -0.1652430   0.0000000   0.0000000   0.0000000   0.2991690   0.7246060  -0.0000000   0.0000000   0.0000000   0.0000000
 0.8850000  -2.3551900  -0.3154520   0.9205710   0.0000000   0.0000000  -0.0175970   0.4215550   0.0568366  -0.1652430   0.0000000   0.0000000   0.0000000   0.2870630   0.7429910  -0.0000000   0.0000000   0.0000000   0.0000000
 0.8900000  -2.3530800  -0.3151580   0.9197450   0.0000000   0.0000000  -0.0174331   0.4229610   0.0605970  -0.1652430   0.0000000   0.0000000   0.0000000   0.2752080   0.7611270  -0.0000000   0.0000000   0.0000000   0.0000000
 0.8950000  -2.3509600  -0.3148460   0.9189190   0.0000000   0.0000000  -0.0172692   0.4243080   0.0644474  -0.1652430   0.0000000   0.0000000   0.0000000   0.2636020   0.7790120  -0.0000000   0.0000000   0.0000000   0.0000000
 0.9000000  -2.3488400  -0.3145140   0.9180930   0.0000000   0.0000000  -0.0171053   0.4255970   0.0683867  -0.1652430   0.0000000   0.0000000   0.0000000   0.2522470   0.7966480  -0.0000000   0.0000000   0.0000000   0.0000000
 0.9050000  -2.3467100  -0.3141620   0.9172660   0.0000000   0.0000000  -0.0169414   0.4268310   0.0724135  -0.1652430   0.0000000   0.0000000   0.0000000   0.2411410   0.8140340  -0.0000000   0.0000000   0.0000000   0.0000000
 0.9100000  -2.3445700  -0.3137890   0.9164400   0.0000000   0.0000000  -0.0167775   0.4280090   0.0765266  -0.1652430   0.0000000   0.0000000   0.0000000   0.2302860   0.8311690  -0.0000000   0.0000000   0.0000000   0.0000000
 0.9150000  -2.3424300  -0.3133960   0.9156140   0.0000000   0.0000000  -0.0166136   0.4291340   0.0807248  -0.1652430   0.0000000   0.0000000   0.0000000   0.2196800   0.8480550  -0.0000000   0.0000000   0.0000000   0.0000000
 0.9200000  -2.3402800  -0.3129820   0.9147880   0.0000000   0.0000000  -0.0164496   0.4302060   0.0850067  -0.1652430   0.0000000   0.0000000   0.0000000   0.2093250   0.8646900  -0.0000000   0.0000000   0.0000000   0.0000000
 0.9250000  -2.3381300  -0.3125460   0.9139620   0.0000000   0.0000000  -0.0162857   0.4312280   0.0893712  -0.1652430   0.0000000   0.0000000   0.0000000   0.1992190   0.8810760  -0.0000000   0.0000000   0.0000000   0.0000000
 0.9300000  -2.3359700  -0.3120880   0.9131350   0.0000000   0.0000000  -0.0161218   0.4321990   0.0938171  -0.1652430   0.0000000   0.0000000   0.0000000   0.1893640   0.8972110  -0.0000000   0.0000000   0.0000000   0.0000000
 0.9350000  -2.3338000  -0.3116080   0.9123090   0.0000000   0.0000000  -0.0159579   0.4331220   0.0983429  -0.1652430   0.0000000   0.0000000   0.0000000   0.1797580   0.9130970  -0.0000000   0.0000000   0.0000000   0.0000000
 0.9400000  -2.3316400  -0.3111040   0.9114830   0.0000000   0.0000000  -0.0157940   0.4339970   0.1029480  -0.1652430   0.0000000   0.0000000   0.0000000   0.1704030   0.9287330  -0.0000000   0.0000000   0.0000000   0.0000000
 0.9450000  -2.3294600  -0.3105780   0.9106570   0.0000000   0.0000000  -0.0156301   0.4348260   0.1076300  -0.1652430   0.0000000   0.0000000   0.0000000   0.1612980   0.9441180  -0.0000000   0.0000000   0.0000000   0.0000000
 0.9500000  -2.3272900  -0.3100280   0.9098310   0.0000000   0.0000000  -0.0154662   0.4356100   0.1123880  -0.1652430   0.0000000   0.0000000   0.0000000   0.1524420   0.9592540  -0.0000000   0.0000000   0.0000000   0.0000000
 0.9550000  -2.3251100  -0.3094540   0.9090040   0.0000000   0.0000000  -0.0153023   0.4363510   0.1172220  -0.1652430   0.0000000   0.0000000   0.0000000   0.1438370   0.9741390  -0.0000000   0.0000000   0.0000000   0.0000000
 0.9600000  -2.3229300  -0.3088560   0.9081780   0.0000000   0.0000000  -0.0151383   0.4370490   0.1221290  -0.1652430   0.0000000   0.0000000   0.0000000   0.1354810   0.9887750  -0.0000000   0.0000000   0.0000000   0.0000000
 0.9650000  -2.3207400  -0.3082330   0.9073520   0.0000000   0.0000000  -0.0149744   0.4377060   0.1271090  -0.1652430   0.0000000   0.0000000   0.0000000   0.1273760   1.0031600  -0.0000000   0.0000000   0.0000000   0.0000000
 0.9700000  -2.3185500  -0.3075840   0.9065260   0.0000000   0.0000000  -0.0148105   0.4383230   0.1321610  -0.1652430   0.0000000   0.0000000   0.0000000   0.1195200   1.0173000  -0.0000000   0.0000000   0.0000000   0.0000000
 0.9750000  -2.3163600  -0.3069110   0.9056990   0.0000000   0.0000000  -0.0146467   0.4389020   0.1372820  -0.1652430   0.0000000   0.0000000   0.0000000   0.1119150   1.0311800  -0.0000000   0.0000000   0.0000000   0.0000000
 0.9800000  -2.3141600  -0.3062120   0.9048730   0.0000000   0.0000000  -0.0144828   0.4394430   0.1424720  -0.1652430   0.0000000   0.0000000   0.0000000   0.1045590   1.0448200  -0.0000000   0.0000000   0.0000000   0.0000000
 0.9850000  -2.3119600  -0.3054860   0.9040470   0.0000000   0.0000000  -0.0143191   0.4399480   0.1477300  -0.1652430   0.0000000   0.0000000   0.0000000   0.0974538   1.0582000  -0.0000000   0.0000000   0.0000000   0.0000000
 0.9900000  -2.3097600  -0.3047340   0.9032210   0.0000000   0.0000000  -0.0141555   0.4404180   0.1530540  -0.1652430   0.0000000   0.0000000   0.0000000   0.0905983   1.0713400  -0.0000000   0.0000000   0.0000000   0.0000000
 0.9950000  -2.3075600  -0.3039550   0.9023950   0.0000000   0.0000000  -0.0139921   0.4408540   0.1584430  -0.1652430   0.0000000   0.0000000   0.0000000   0.0839929   1.0842200  -0.0000000   0.0000000   0.0000000   0.0000000
 1.0000000  -2.3053500  -0.3031500   0.9015680   0.0000000   0.0000000  -0.0138289   0.4412580   0.1638950  -0.1652430   0.0000000   0.0000000   0.0000000   0.0776374   1.0968600  -0.0000000   0.0000000   0.0000000   0.0000000
 1.0050000  -2.3031400  -0.3023160   0.9007420   0.0000000   0.0000000  -0.0136661   0.4416310   0.1694110  -0.1652430   0.0000000   0.0000000   0.0000000   0.0715319   1.1092500  -0.0000000   0.0000000   0.0000000   0.0000000
 1.0100000  -2.3009400  -0.3014550   0.8999160   0.0000000   0.0000000  -0.0135037   0.4419740   0.1749870  -0.1652430   0.0000000   0.0000000   0.0000000   0.0656765   1.1213800  -0.0000000   0.0000000   0.0000000   0.0000000
 1.0150000  -2.2987200  -0.3005660   0.8990900   0.0000000   0.0000000  -0.0133418   0.4422880   0.1806240  -0.1652430   0.0000000   0.0000000   0.0000000   0.0600710   1.1332700  -0.0000000   0.0000000   0.0000000   0.0000000
 1.0200000  -2.2965100  -0.2996490   0.8982640   0.0000000   0.0000000  -0.0131806   0.4425750   0.1863200  -0.1652430   0.0000000   0.0000000   0.0000000   0.0547155   1.1449000  -0.0000000   0.0000000   0.0000000   0.0000000
 1.0250000  -2.2943000  -0.2987030   0.8974370   0.0000000   0.0000000  -0.0130201   0.4428360   0.1920730  -0.1652430   0.0000000   0.0000000   0.0000000   0.0496101   1.1562900  -0.0000000   0.0000000   0.0000000   0.0000000
 1.0300000  -2.2920800  -0.2977280   0.8966110   0.0000000   0.0000000  -0.0128604   0.4430710   0.1978820  -0.1652430   0.0000000   0.0000000   0.0000000   0.0447546   1.1674200  -0.0000000   0.0000000   0.0000000   0.0000000
 1.0350000  -2.2898700  -0.2967240   0.8957850   0.0000000   0.0000000  -0.0127018   0.4432840   0.2037470  -0.1652430   0.0000000   0.0000000   0.0000000   0.0401491   1.1783100  -0.0000000   0.0000000   0.0000000   0.0000000
 1.0400000  -2.2876500  -0.2956910   0.8949590   0.0000000   0.0000000  -0.0125443   0.4434730   0.2096650  -0.1652430   0.0000000   0.0000000   0.0000000   0.0357937   1.1889400  -0.0000000   0.0000000   0.0000000   0.0000000
 1.0450000  -2.2854300  -0.2946270   0.8941320   0.0000000   0.0000000  -0.0123881   0.4436420   0.2156360  -0.1652430   0.0000000   0.0000000   0.0000000   0.0316882   1.1993300  -0.0000000   0.0000000   0.0000000   0.0000000
 1.0500000  -2.2832100  -0.2935340   0.8933060   0.0000000   0.0000000  -0.0122334   0.4437910   0.2216580  -0.1652430   0.0000000   0.0000000   0.0000000   0.0278327   1.2094700  -0.0000000   0.0000000   0.0000000   0.0000000
 1.0550000  -2.2810000  -0.2924110   0.8924800   0.0000000   0.0000000  -0.0120804   0.4439210   0.2277300  -0.1652430   0.0000000   0.0000000   0.0000000   0.0242273   1.2193500  -0.0000000   0.0000000   0.0000000   0.0000000
 1.0600000  -2.2787800  -0.2912570   0.8916540   0.0000000   0.0000000  -0.0119292   0.4440330   0.2338510  -0.1652430   0.0000000   0.0000000   0.0000000   0.0208718   1.2289900  -0.0000000   0.0000000   0.0000000   0.0000000
 1.0650000  -2.2765600  -0.2900720   0.8908280   0.0000000   0.0000000  -0.0117800   0.4441300   0.2400190  -0.1652430   0.0000000   0.0000000   0.0000000   0.0177663   1.2383700  -0.0000000   0.0000000   0.0000000   0.0000000
 1.0700000  -2.2743300  -0.2888570   0.8900010   0.0000000   0.0000000  -0.0116331   0.4442110   0.2462340  -0.1652430   0.0000000   0.0000000   0.0000000   0.0149109   1.2475100  -0.0000000   0.0000000   0.0000000   0.0000000
 1.0750000  -2.2721100  -0.2876100   0.8891750   0.0000000   0.0000000  -0.0114886   0.4442790   0.2524940  -0.1652430   0.0000000   0.0000000   0.0000000   0.0123054   1.2563900  -0.0000000   0.0000000   0.0000000   0.0000000
 1.0800000  -2.2698900  -0.2863320   0.8883490   0.0000000   0.0000000  -0.0113468   0.4443350   0.2587980  -0.1652430   0.0000000   0.0000000   0.0000000   0.0099500   1.2650300  -0.0000000   0.0000000   0.0000000   0.0000000
 1.0850000  -2.2676700  -0.2850220   0.8875230   0.0000000   0.0000000  -0.0112080   0.4443790   0.2651440  -0.1652430   0.0000000   0.0000000   0.0000000   0.0078445   1.2734100  -0.0000000   0.0000000   0.0000000   0.0000000
 1.0900000  -2.2654500  -0.2836800   0.8866970   0.0000000   0.0000000  -0.0110723   0.4444140   0.2715310  -0.1652430   0.0000000   0.0000000   0.0000000   0.0059890   1.2815500  -0.0000000   0.0000000   0.0000000   0.0000000
 1.0950000  -2.2632300  -0.2823060   0.8858700   0.0000000   0.0000000  -0.0109400   0.4444400   0.2779590  -0.1652430   0.0000000   0.0000000   0.0000000   0.0043836   1.2894400  -0.0000000   0.0000000   0.0000000   0.0000000
 1.1000000  -2.2610000  -0.2809000   0.8850440   0.0000000   0.0000000  -0.0108114   0.4444580   0.2844250  -0.1652430   0.0000000   0.0000000   0.0000000   0.0030281   1.2970700  -0.0000000   0.0000000   0.0000000   0.0000000
 1.1050000  -2.2587800  -0.2794620   0.8842180   0.0000000   0.0000000  -0.0106867   0.4444700   0.2909290  -0.1652430   0.0000000   0.0000000   0.0000000   0.0019226   1.3044600  -0.0000000   0.0000000   0.0000000   0.0000000
 1.1100000  -2.2565600  -0.2779910   0.8833920   0.0000000   0.0000000  -0.0105660   0.4444780   0.2974690  -0.1652430   0.0000000   0.0000000   0.0000000   0.0010672   1.3115900  -0.0000000   0.0000000   0.0000000   0.0000000
 1.1150000  -2.2543400  -0.2764870   0.8825650   0.0000000   0.0000000  -0.0104496   0.4444810   0.3040450  -0.1652430   0.0000000   0.0000000   0.0000000   0.0004617   1.3184800  -0.0000000   0.0000000   0.0000000   0.0000000
 1.1200000  -2.2521100  -0.2749510   0.8817390   0.0000000   0.0000000  -0.0103377   0.4444830   0.3106540  -0.1652430   0.0000000   0.0000000   0.0000000   0.0001062   1.3251100  -0.0000000   0.0000000   0.0000000   0.0000000
 1.1250000  -2.2498900  -0.2733810   0.8809130   0.0000000   0.0000000  -0.0102304   0.4444830   0.3172950  -0.1652430   0.0000000   0.0000000   0.0000000   0.0000000   1.3315000  -0.0000000   0.0000000   0.0000000   0.0000000
 1.1300000  -2.2476700  -0.2717780   0.8800870   0.0000000   0.0000000  -0.0101280   0.4444830   0.3239680  -0.1652430   0.0000000   0.0000000   0.0000000   0.0000000   1.3376300  -0.0000000   0.0000000   0.0000000   0.0000000
 1.1350000  -2.2454500  -0.2701410   0.8792610   0.0000000   0.0000000  -0.0100306   0.4444830   0.3306710  -0.1652430   0.0000000   0.0000000   0.0000000   0.0000000   1.3435200  -0.0000000   0.0000000   0.0000000   0.0000000
 1.1400000  -2.2432200  -0.2684710   0.8784340   0.0000000   0.0000000  -0.0099383   0.4444830   0.3374030  -0.1652430   0.0000000   0.0000000   0.0000000   0.0000000   1.3491600  -0.0000000   0.0000000   0.0000000   0.0000000
 1.1450000  -2.2410000  -0.2667670   0.8776080   0.0000000   0.0000000  -0.0098513   0.4444830   0.3441620  -0.1652430   0.0000000   0.0000000   0.0000000   0.0000000   1.3545400  -0.0000000   0.0000000   0.0000000   0.0000000
 1.1500000  -2.2387800  -0.2650290   0.8767820   0.0000000   0.0000000  -0.0097698   0.4444830   0.3509480  -0.1652430   0.0000000   0.0000000   0.0000000   0.0000000   1.3596800  -0.0000000   0.0000000   0.0000000   0.0000000
 1.1550000  -2.2365600  -0.2632570   0.8759560   0.0000000   0.0000000  -0.0096938   0.4444830   0.3577590  -0.1652430   0.0000000   0.0000000   0.0000000   0.0000000   1.3645600  -0.0000000   0.0000000   0.0000000   0.0000000
 1.1600000  -2.2343300  -0.2614520   0.8751300   0.0000000   0.0000000  -0.0096235   0.4444830   0.3645930  -0.1652430   0.0000000   0.0000000   0.0000000   0.0000000   1.3692000  -0.0000000   0.0000000   0.0000000   0.0000000
 1.1650000  -2.2321100  -0.2596110   0.8743030   0.0000000   0.0000000  -0.0095589   0.4444830   0.3714500  -0.1652430   0.0000000   0.0000000   0.0000000   0.0000000   1.3735800  -0.0000000   0.0000000   0.0000000   0.0000000
 1.1700000  -2.2298900  -0.2577370   0.8734770   0.0000000   0.0000000  -0.0095002   0.4444830   0.3783290  -0.1652430   0.0000000   0.0000000   0.0000000   0.0000000   1.3777200  -0.0000000   0.0000000   0.0000000   0.0000000
 1.1750000  -2.2276700  -0.2558280   0.8726510   0.0000000   0.0000000  -0.0094474   0.4444830   0.3852270  -0.1652430   0.0000000   0.0000000   0.0000000   0.0000000   1.3816000  -0.0000000   0.0000000   0.0000000   0.0000000
 1.1800000  -2.2254400  -0.2538850   0.8718250   0.0000000   0.0000000  -0.0094007   0.4444830   0.3921440  -0.1652430   0.0000000   0.0000000   0.0000000   0.0000000   1.3852400  -0.0000000   0.0000000   0.0000000   0.0000000
 1.1850000  -2.2232200  -0.2519070   0.8709980   0.0000000   0.0000000  -0.0093600   0.4444830   0.3990790  -0.1652430   0.0000000   0.0000000   0.0000000   0.0000000   1.3886300  -0.0000000   0.0000000   0.0000000   0.0000000
 1.1900000  -2.2210000  -0.2498940   0.8701720   0.0000000   0.0000000  -0.0093255   0.4444830   0.4060300  -0.1652430   0.0000000   0.0000000   0.0000000   0.0000000   1.3917600  -0.0000000   0.0000000   0.0000000   0.0000000
 1.1950000  -2.2187800  -0.2478460   0.8693460   0.0000000   0.0000000  -0.0092971   0.4444830   0.4129960  -0.1652430   0.0000000   0.0000000   0.0000000   0.0000000   1.3946500  -0.0000000   0.0000000   0.0000000   0.0000000
 1.2000000  -2.2165600  -0.2457640   0.8685200   0.0000000   0.0000000  -0.0092750   0.4444830   0.4199760  -0.1652430   0.0000000   0.0000000   0.0000000   0.0000000   1.3972800  -0.0000000   0.0000000   0.0000000   0.0000000
 1.2050000  -2.2143300  -0.2436470   0.8676940   0.0000000   0.0000000  -0.0092590   0.4444830   0.4269690  -0.1652430   0.0000000   0.0000000   0.0000000   0.0000000   1.3996700  -0.0000000   0.0000000   0.0000000   0.0000000
 1.2100000  -2.2121100  -0.2414940   0.8668670   0.0000000   0.0000000  -0.0092494   0.4444830   0.4339720  -0.1652430   0.0000000   0.0000000   0.0000000   0.0000000   1.4018000  -0.0000000   0.0000000   0.0000000   0.0000000
 1.2150000  -2.2098900  -0.2393070   0.8660410   0.0000000   0.0000000  -0.0092459   0.4444830   0.4409860  -0.1652430   0.0000000   0.0000000   0.0000000   0.0000244   1.4036900  -0.0000000   0.0000000   0.0000000   0.0000000
 1.2200000  -2.2076700  -0.2370840   0.8652150   0.0000000   0.0000000  -0.0092488   0.4444840   0.4480090  -0.1652430   0.0000000   0.0000000   0.0000000   0.0002600   1.4053200  -0.0000000   0.0000000   0.0000000   0.0000000
 1.2250000  -2.2054400  -0.2348270   0.8643890   0.0000000   0.0000000  -0.0092578   0.4444860   0.4550390  -0.1652430   0.0000000   0.0000000   0.0000000   0.0007455   1.4067100  -0.0000000   0.0000000   0.0000000   0.0000000
 1.2300000  -2.2032200  -0.2325340   0.8635620   0.0000000   0.0000000  -0.0092732   0.4444910   0.4620760  -0.1652430   0.0000000   0.0000000   0.0000000   0.0014811   1.4078500  -0.0000000   0.0000000   0.0000000   0.0000000
 1.2350000  -2.2010000  -0.2302060   0.8627360   0.0000000   0.0000000  -0.0092948   0.4445010   0.4691170  -0.1652430   0.0000000   0.0000000   0.0000000   0.0024666   1.4087300  -0.0000000   0.0000000   0.0000000   0.0000000
 1.2400000  -2.1987800  -0.2278430   0.8619100   0.0000000   0.0000000  -0.0093226   0.4445160   0.4761630  -0.1652430   0.0000000   0.0000000   0.0000000   0.0037022   1.4093700  -0.0000000   0.0000000   0.0000000   0.0000000
 1.2450000  -2.1965500  -0.2254440   0.8610840   0.0000000   0.0000000  -0.0093567   0.4445390   0.4832100  -0.1652430   0.0000000   0.0000000   0.0000000   0.0051877   1.4097500  -0.0000000   0.0000000   0.0000000   0.0000000
 1.2500000  -2.1943300  -0.2230110   0.8602580   0.0000000   0.0000000  -0.0093970   0.4445690   0.4902600  -0.1652430   0.0000000   0.0000000   0.0000000   0.0069233   1.4098900  -0.0000000   0.0000000   0.0000000   0.0000000
 1.2550000  -2.1921100  -0.2205420   0.8594310   0.0000000   0.0000000  -0.0094436   0.4446080   0.4973090  -0.1652430   0.0000000   0.0000000   0.0000000   0.0089088   1.4097700  -0.0000000   0.0000000   0.0000000   0.0000000
 1.2600000  -2.1898800  -0.2180380   0.8586050   0.0000000   0.0000000  -0.0094964   0.4446580   0.5043570  -0.1652430   0.0000000   0.0000000   0.0000000   0.0111443   1.4094100  -0.0000000   0.0000000   0.0000000   0.0000000
 1.2650000  -2.1876600  -0.2154980   0.8577790   0.0000000   0.0000000  -0.0095555   0.4447200   0.5114030  -0.1652430   0.0000000   0.0000000   0.0000000   0.0136299   1.4087900  -0.0000000   0.0000000   0.0000000   0.0000000
 1.2700000  -2.1854400  -0.2129230   0.8569530   0.0000000   0.0000000  -0.0096208   0.4447950   0.5184450  -0.1652430   0.0000000   0.0000000   0.0000000   0.0163654   1.4079300  -0.0000000   0.0000000   0.0000000   0.0000000
 1.2750000  -2.1832100  -0.2103140   0.8561270   0.0000000   0.0000000  -0.0096924   0.4448840   0.5254810  -0.1652430   0.0000000   0.0000000   0.0000000   0.0193510   1.4068200  -0.0000000   0.0000000   0.0000000   0.0000000
 1.2800000  -2.1809900  -0.2076690   0.8553000   0.0000000   0.0000000  -0.0097702   0.4449890   0.5325120  -0.1652430   0.0000000   0.0000000   0.0000000   0.0225865   1.4054500  -0.0000000   0.0000000   0.0000000   0.0000000
 1.2850000  -2.1787600  -0.2049890   0.8544740   0.0000000   0.0000000  -0.0098543   0.4451100   0.5395360  -0.1652430   0.0000000   0.0000000   0.0000000   0.0260721   1.4038400  -0.0000000   0.0000000   0.0000000   0.0000000
 1.2900000  -2.1765400  -0.2022730   0.8536480   0.0000000   0.0000000  -0.0099446   0.4452500   0.5465500  -0.1652430   0.0000000   0.0000000   0.0000000   0.0298076   1.4019700  -0.0000000   0.0000000   0.0000000   0.0000000
 1.2950000  -2.1743100  -0.1995230   0.8528220   0.0000000   0.0000000  -0.0100412   0.4454090   0.5535550  -0.1652430   0.0000000   0.0000000   0.0000000   0.0337932   1.3998600  -0.0000000   0.0000000   0.0000000   0.0000000
 1.3000000  -2.1720800  -0.1967380   0.8519950   0.0000000   0.0000000  -0.0101440   0.4455880   0.5605480  -0.1652430   0.0000000   0.0000000   0.0000000   0.0380287   1.3974900  -0.0000000   0.0000000   0.0000000   0.0000000
 1.3050000  -2.1698500  -0.1939180   0.8511690   0.0000000   0.0000000  -0.0102531   0.4457900   0.5675290  -0.1652430   0.0000000   0.0000000   0.0000000   0.0425143   1.3948800  -0.0000000   0.0000000   0.0000000   0.0000000
 1.3100000  -2.1676300  -0.1910630   0.8503430   0.0000000   0.0000000  -0.0103684   0.4460140   0.5744970  -0.1652430   0.0000000   0.0000000   0.0000000   0.0472498   1.3920100  -0.0000000   0.0000000   0.0000000   0.0000000
 1.3150000  -2.1653900  -0.1881730   0.8495170   0.0000000   0.0000000  -0.0104900   0.4462630   0.5814490  -0.1652430   0.0000000   0.0000000   0.0000000   0.0522353   1.3889000  -0.0000000   0.0000000   0.0000000   0.0000000
 1.3200000  -2.1631600  -0.1852480   0.8486910   0.0000000   0.0000000  -0.0106178   0.4465370   0.5883850  -0.1652430   0.0000000   0.0000000   0.0000000   0.0574709   1.3855400  -0.0000000   0.0000000   0.0000000   0.0000000
 1.3250000  -2.1609300  -0.1822890   0.8478640   0.0000000   0.0000000  -0.0107519   0.4468380   0.5953040  -0.1652430   0.0000000   0.0000000   0.0000000   0.0629564   1.3819200  -0.0000000   0.0000000   0.0000000   0.0000000
 1.3300000  -2.1586900  -0.1792950   0.8470380   0.0000000   0.0000000  -0.0108922   0.4471670   0.6022040  -0.1652430   0.0000000   0.0000000   0.0000000   0.0686920   1.3780600  -0.0000000   0.0000000   0.0000000   0.0000000
 1.3350000  -2.1564600  -0.1762670   0.8462120   0.0000000   0.0000000  -0.0110388   0.4475250   0.6090840  -0.1652430   0.0000000   0.0000000   0.0000000   0.0746775   1.3739400  -0.0000000   0.0000000   0.0000000   0.0000000
 1.3400000  -2.1542200  -0.1732040   0.8453860   0.0000000   0.0000000  -0.0111916   0.4479140   0.6159430  -0.1652430   0.0000000   0.0000000   0.0000000   0.0809131   1.3695800  -0.0000000   0.0000000   0.0000000   0.0000000
 1.3450000  -2.1519800  -0.1701070   0.8445600   0.0000000   0.0000000  -0.0113507   0.4483350   0.6227800  -0.1652430   0.0000000   0.0000000   0.0000000   0.0873986   1.3649600  -0.0000000   0.0000000   0.0000000   0.0000000
 1.3500000  -2.1497400  -0.1669770   0.8437330   0.0000000   0.0000000  -0.0115160   0.4487880   0.6295920  -0.1652430   0.0000000   0.0000000   0.0000000   0.0941342   1.3601000  -0.0000000   0.0000000   0.0000000   0.0000000
 1.3550000  -2.1474900  -0.1638120   0.8429070   0.0000000   0.0000000  -0.0116876   0.4492760   0.6363800  -0.1652430   0.0000000   0.0000000   0.0000000   0.1011200   1.3549900  -0.0000000   0.0000000   0.0000000   0.0000000
 1.3600000  -2.1452400  -0.1606130   0.8420810   0.0000000   0.0000000  -0.0118655   0.4498000   0.6431420  -0.1652430   0.0000000   0.0000000   0.0000000   0.1083550   1.3496200  -0.0000000   0.0000000   0.0000000   0.0000000
 1.3650000  -2.1429900  -0.1573800   0.8412550   0.0000000   0.0000000  -0.0120495   0.4503600   0.6498760  -0.1652430   0.0000000   0.0000000   0.0000000   0.1158410   1.3440100  -0.0000000   0.0000000   0.0000000   0.0000000
 1.3700000  -2.1407400  -0.1541140   0.8404280   0.0000000   0.0000000  -0.0122399   0.4509590   0.6565810  -0.1652430   0.0000000   0.0000000   0.0000000   0.1235760   1.3381400  -0.0000000   0.0000000   0.0000000   0.0000000
 1.3750000  -2.1384800  -0.1508140   0.8396020   0.0000000   0.0000000  -0.0124364   0.4515960   0.6632570  -0.1652430   0.0000000   0.0000000   0.0000000   0.1315620   1.3320300  -0.0000000   0.0000000   0.0000000   0.0000000
 1.3800000  -2.1362200  -0.1474820   0.8387760   0.0000000   0.0000000  -0.0126393   0.4522750   0.6699010  -0.1652430   0.0000000   0.0000000   0.0000000   0.1397970   1.3256600   0.0000251   0.0000000   0.0000000   0.0000000
 1.3850000  -2.1339600  -0.1441150   0.8379500   0.0000000   0.0000000  -0.0128483   0.4529950   0.6765130  -0.1652420   0.0000000   0.0000000   0.0000000   0.1482830   1.3190500   0.0002622   0.0000000   0.0000000   0.0000000
 1.3900000  -2.1316900  -0.1407160   0.8371240   0.0000000   0.0000000  -0.0130637   0.4537580   0.6830910  -0.1652400   0.0000000   0.0000000   0.0000000   0.1570190   1.3121800   0.0007492   0.0000000   0.0000000   0.0000000
 1.3950000  -2.1294200  -0.1372850   0.8362970   0.0000000   0.0000000  -0.0132853   0.4545650   0.6896350  -0.1652350   0.0000000   0.0000000   0.0000000   0.1660040   1.3050700   0.0014862   0.0000000   0.0000000   0.0000000
 1.4000000  -2.1271500  -0.1338200   0.8354710   0.0000000   0.0000000  -0.0135131   0.4554180   0.6961420  -0.1652250   0.0000000   0.0000000   0.0000000   0.1752400   1.2977100   0.0024733   0.0000000   0.0000000   0.0000000
 1.4050000  -2.1248700  -0.1303230   0.8346450   0.0000000   0.0000000  -0.0137472   0.4563180   0.7026110  -0.1652090   0.0000000   0.0000000   0.0000000   0.1847250   1.2900900   0.0037103   0.0000000   0.0000000   0.0000000
 1.4100000  -2.1225800  -0.1267940   0.8338190   0.0000000   0.0000000  -0.0139875   0.4572660   0.7090420  -0.1651870   0.0000000   0.0000000   0.0000000   0.1944610   1.2822300   0.0051974   0.0000000   0.0000000   0.0000000
 1.4150000  -2.1202900  -0.1232330   0.8329930   0.0000000   0.0000000  -0.0142341   0.4582630   0.7154330  -0.1651570   0.0000000   0.0000000   0.0000000   0.2044460   1.2741100   0.0069344   0.0000000   0.0000000   0.0000000
 1.4200000  -2.1180000  -0.1196400   0.8321680   0.0000000   0.0000000  -0.0144869   0.4593110   0.7217830  -0.1651170   0.0000000   0.0000000   0.0000000   0.2146820   1.2657500   0.0089215   0.0000000   0.0000000   0.0000000
 1.4250000  -2.1157000  -0.1160150   0.8313420   0.0000000   0.0000000  -0.0147460   0.4604110   0.7280900  -0.1650670   0.0000000   0.0000000   0.0000000   0.2251670   1.2571300   0.0111585   0.0000000   0.0000000   0.0000000
 1.4300000  -2.1134000  -0.1123590   0.8305170   0.0000000   0.0000000  -0.0150113   0.4615630   0.7343540  -0.1650050   0.0000000   0.0000000   0.0000000   0.2359030   1.2482700   0.0136455   0.0000000   0.0000000   0.0000000
 1.4350000  -2.1110900  -0.1086720   0.8296920   0.0000000   0.0000000  -0.0152829   0.4627700   0.7405720  -0.1649300   0.0000000   0.0000000   0.0000000   0.2468880   1.2391500   0.0163826   0.0000000   0.0000000   0.0000000
 1.4400000  -2.1087700  -0.1049530   0.8288680   0.0000000   0.0000000  -0.0155607   0.4640320   0.7467450  -0.1648410   0.0000000   0.0000000   0.0000000   0.2581240   1.2297900   0.0193696   0.0000000   0.0000000   0.0000000
 1.4450000  -2.1064500  -0.1012040   0.8280440   0.0000000   0.0000000  -0.0158448   0.4653520   0.7528700  -0.1647360   0.0000000   0.0000000   0.0000000   0.2696100   1.2201800   0.0226067   0.0000000   0.0000000   0.0000000
 1.4500000  -2.1041200  -0.0974248   0.8272200   0.0000000   0.0000000  -0.0161351   0.4667290   0.7589460  -0.1646150   0.0000000   0.0000000   0.0000000   0.2813450   1.2103100   0.0260937   0.0000000   0.0000000   0.0000000
 1.4550000  -2.1017800  -0.0936149   0.8263980   0.0000000   0.0000000  -0.0164317   0.4681660   0.7649730  -0.1644750   0.0000000   0.0000000   0.0000000   0.2933310   1.2002000   0.0298308   0.0000000   0.0000000   0.0000000
 1.4600000  -2.0994300  -0.0897751   0.8255760   0.0000000   0.0000000  -0.0167345   0.4696630   0.7709480  -0.1643160   0.0000000   0.0000000   0.0000000   0.3055660   1.1898300   0.0338178   0.0000000   0.0000000   0.0000000
 1.4650000  -2.0970800  -0.0859055   0.8247550   0.0000000   0.0000000  -0.0170436   0.4712220   0.7768710  -0.1641360   0.0000000   0.0000000   0.0000000   0.3180520   1.1792200   0.0380549   0.0000000   0.0000000   0.0000000
 1.4700000  -2.0947200  -0.0820065   0.8239340   0.0000000   0.0000000  -0.0173589   0.4728440   0.7827400  -0.1639350   0.0000000   0.0000000   0.0000000   0.3307870   1.1683500   0.0425419   0.0000000   0.0000000   0.0000000
 1.4750000  -2.0923500  -0.0780782   0.8231150   0.0000000   0.0000000  -0.0176805   0.4745300   0.7885540  -0.1637110   0.0000000   0.0000000   0.0000000   0.3437730   1.1572400   0.0472789   0.0000000   0.0000000   0.0000000
 1.4800000  -2.0899800  -0.0741211   0.8222970   0.0000000   0.0000000  -0.0180083   0.4762820   0.7943120  -0.1634620   0.0000000   0.0000000   0.0000000   0.3568550   1.1458700   0.0522660   0.0000000   0.0000000   0.0000000
 1.4850000  -2.0875900  -0.0701352   0.8214810   0.0000000   0.0000000  -0.0183424   0.4780980   0.8000120  -0.1631880   0.0000000   0.0000000   0.0000000   0.3696990   1.1342600   0.0575030   0.0000000   0.0000000   0.0000000
 1.4900000  -2.0851900  -0.0661210   0.8206650   0.0000000   0.0000000  -0.0186827   0.4799780   0.8056540  -0.1628860   0.0000000   0.0000000   0.0000000   0.3822930   1.1224000   0.0629901   0.0000000   0.0000000   0.0000000
 1.4950000  -2.0827900  -0.0620788   0.8198520   0.0000000   0.0000000  -0.0190293   0.4819210   0.8112360  -0.1625570   0.0000000   0.0000000   0.0000000   0.3946370   1.1102800   0.0687271   0.0000000   0.0000000   0.0000000
 1.5000000  -2.0803800  -0.0580088   0.8190400   0.0000000   0.0000000  -0.0193821   0.4839240   0.8167560  -0.1621990   0.0000000   0.0000000   0.0000000   0.4067310   1.0979200   0.0747142   0.0000000   0.0000000   0.0000000
 1.5050000  -2.0779500  -0.0539113   0.8182300   0.0000000   0.0000000  -0.0197412   0.4859870   0.8222140  -0.1618100   0.0000000   0.0000000   0.0000000   0.4185750   1.0853000   0.0809512   0.0000000   0.0000000   0.0000000
 1.5100000  -2.0755200  -0.0497867   0.8174220   0.0000000   0.0000000  -0.0201065   0.4881090   0.8276090  -0.1613890   0.0000000   0.0000000   0.0000000   0.4301690   1.0724400   0.0874383   0.0000000   0.0000000   0.0000000
 1.5150000  -2.0730700  -0.0456354   0.8166160   0.0000000   0.0000000  -0.0204781   0.4902890   0.8329380  -0.1609350   0.0000000   0.0000000   0.0000000   0.4415130   1.0593200   0.0941753   0.0000000   0.0000000   0.0000000
 1.5200000  -2.0706100  -0.0414575   0.8158130   0.0000000   0.0000000  -0.0208560   0.4925240   0.8382020  -0.1604470   0.0000000   0.0000000   0.0000000   0.4526070   1.0459600   0.1011620   0.0000000   0.0000000   0.0000000
 1.5250000  -2.0681400  -0.0372534   0.8150120   0.0000000   0.0000000  -0.0212400   0.4948140   0.8433970  -0.1599230   0.0000000   0.0000000   0.0000000   0.4634510   1.0323400   0.1083990   0.0000000   0.0000000   0.0000000
 1.5300000  -2.0656600  -0.0330236   0.8142130   0.0000000   0.0000000  -0.0216304   0.4971580   0.8485250  -0.1593620   0.0000000   0.0000000   0.0000000   0.4740450   1.0184800   0.1158860   0.0000000   0.0000000   0.0000000
 1.5350000  -2.0631700  -0.0287683   0.8134180   0.0000000   0.0000000  -0.0220269   0.4995540   0.8535820  -0.1587640   0.0000000   0.0000000   0.0000000   0.4843890   1.0043700   0.1236230   0.0000000   0.0000000   0.0000000
 1.5400000  -2.0606700  -0.0244879   0.8126260   0.0000000   0.0000000  -0.0224298   0.5020020   0.8585680  -0.1581260   0.0000000   0.0000000   0.0000000   0.4944830   0.9900010   0.1316110   0.0000000   0.0000000   0.0000000
 1.5450000  -2.0581500  -0.0201828   0.8118370   0.0000000   0.0000000  -0.0228388   0.5044990   0.8634810  -0.1574470   0.0000000   0.0000000   0.0000000   0.5043270   0.9753870   0.1398480   0.0000000   0.0000000   0.0000000
 1.5500000  -2.0556200  -0.0158532   0.8110510   0.0000000   0.0000000  -0.0232542   0.5070450   0.8683210  -0.1567270   0.0000000   0.0000000   0.0000000   0.5139210   0.9605220   0.1483350   0.0000000   0.0000000   0.0000000
 1.5550000  -2.0530800  -0.0114997   0.8102700   0.0000000   0.0000000  -0.0236758   0.5096380   0.8730860  -0.1559630   0.0000000   0.0000000   0.0000000   0.5232650   0.9454080   0.1570720   0.0000000   0.0000000   0.0000000
 1.5600000  -2.0505300  -0.0071225   0.8094920   0.0000000   0.0000000  -0.0241036   0.5122770   0.8777750  -0.1551560   0.0000000   0.0000000   0.0000000   0.5323590   0.9300440   0.1660590   0.0000000   0.0000000   0.0000000
 1.5650000  -2.0479600  -0.0027221   0.8087180   0.0000000   0.0000000  -0.0245377   0.5149610   0.8823860  -0.1543020   0.0000000   0.0000000   0.0000000   0.5412030   0.9144290   0.1752960   0.0000000   0.0000000   0.0000000
 1.5700000  -2.0453800   0.0017012   0.8079490   0.0000000   0.0000000  -0.0249780   0.5176880   0.8869190  -0.1534020   0.0000000   0.0000000   0.0000000   0.5497970   0.8985650   0.1847830   0.0000000   0.0000000   0.0000000
 1.5750000  -2.0427800   0.0061470   0.8071840   0.0000000   0.0000000  -0.0254246   0.5204580   0.8913710  -0.1524540   0.0000000   0.0000000   0.0000000   0.5581420   0.8824500   0.1945200   0.0000000   0.0000000   0.0000000
 1.5800000  -2.0401700   0.0106148   0.8064240   0.0000000   0.0000000  -0.0258774   0.5232690   0.8957430  -0.1514570   0.0000000   0.0000000   0.0000000   0.5662360   0.8660860   0.2045070   0.0000000   0.0000000   0.0000000
 1.5850000  -2.0375500   0.0151043   0.8056700   0.0000000   0.0000000  -0.0263365   0.5261200   0.9000320  -0.1504080   0.0000000   0.0000000   0.0000000   0.5740800   0.8494710   0.2147440   0.0000000   0.0000000   0.0000000
 1.5900000  -2.0349100   0.0196150   0.8049200   0.0000000   0.0000000  -0.0268018   0.5290100   0.9042370  -0.1493090   0.0000000   0.0000000   0.0000000   0.5816740   0.8326070   0.2252310   0.0000000   0.0000000   0.0000000
 1.5950000  -2.0322600   0.0241465   0.8041770   0.0000000   0.0000000  -0.0272734   0.5319370   0.9083580  -0.1481560   0.0000000   0.0000000   0.0000000   0.5890180   0.8154930   0.2359680   0.0000000   0.0000000   0.0000000
 1.6000000  -2.0295900   0.0286984   0.8034390   0.0000000   0.0000000  -0.0277512   0.5349000   0.9123920  -0.1469490   0.0000000   0.0000000   0.0000000   0.5961120   0.7981280   0.2469550   0.0000000   0.0000000   0.0000000
 1.6050000  -2.0269100   0.0332703   0.8027070   0.0000000   0.0000000  -0.0282353   0.5378970   0.9163380  -0.1456860   0.0000000   0.0000000   0.0000000   0.6029560   0.7805140   0.2581920   0.0000000   0.0000000   0.0000000
 1.6100000  -2.0242100   0.0378617   0.8019820   0.0000000   0.0000000  -0.0287256   0.5409290   0.9201960  -0.1443660   0.0000000   0.0000000   0.0000000   0.6095500   0.7626490   0.2696790   0.0000000   0.0000000   0.0000000
 1.6150000  -2.0215000   0.0424721   0.8012640   0.0000000   0.0000000  -0.0292222   0.5439920   0.9239640  -0.1429890   0.0000000   0.0000000   0.0000000   0.6158940   0.7445350   0.2814160   0.0000000   0.0000000   0.0000000
 1.6200000  -2.0187700   0.0471012   0.8005520   0.0000000   0.0000000  -0.0297250   0.5470870   0.9276410  -0.1415520   0.0000000   0.0000000   0.0000000   0.6219880   0.7261700   0.2934030   0.0000000   0.0000000   0.0000000
 1.6250000  -2.0160300   0.0517484   0.7998480   0.0000000   0.0000000  -0.0302341   0.5502120   0.9312260  -0.1400540   0.0000000   0.0000000   0.0000000   0.6278320   0.7075560   0.3056400   0.0000000   0.0000000   0.0000000
 1.6300000  -2.0132700   0.0564133   0.7991520   0.0000000   0.0000000  -0.0307494   0.5533650   0.9347160  -0.1384950   0.0000000   0.0000000   0.0000000   0.6334260   0.6886920   0.3181270   0.0000000   0.0000000   0.0000000
 1.6350000  -2.0105000   0.0610954   0.7984640   0.0000000   0.0000000  -0.0312710   0.5565460   0.9381120  -0.1368720   0.0000000   0.0000000   0.0000000   0.6387700   0.6695770   0.3308640   0.0000000   0.0000000   0.0000000
 1.6400000  -2.0077100   0.0657942   0.7977830   0.0000000   0.0000000  -0.0317988   0.5597520   0.9414120  -0.1351860   0.0000000   0.0000000   0.0000000   0.6438640   0.6502130   0.3438510   0.0000000   0.0000000   0.0000000
 1.6450000  -2.0049000   0.0705093   0.7971120   0.0000000   0.0000000  -0.0323329   0.5629840   0.9446140  -0.1334340   0.0000000   0.0000000   0.0000000   0.6487080   0.6305980   0.3569970   0.0000000   0.0000000   0.0000000
 1.6500000  -2.0020800   0.0752402   0.7964490   0.0000000   0.0000000  -0.0328732   0.5662390   0.9477170  -0.1316160   0.0000000   0.0000000   0.0000000   0.6533020   0.6107340   0.3699330   0.0000000   0.0000000   0.0000000
 1.6550000  -1.9992400   0.0799863   0.7957960   0.0000000   0.0000000  -0.0334198   0.5695170   0.9507210  -0.1297350   0.0000000   0.0000000   0.0000000   0.6576460   0.5906200   0.3826180   0.0000000   0.0000000   0.0000000
 1.6600000  -1.9963800   0.0847472   0.7951520   0.0000000   0.0000000  -0.0339726   0.5728150   0.9536230  -0.1277900   0.0000000   0.0000000   0.0000000   0.6617400   0.5702550   0.3950530   0.0000000   0.0000000   0.0000000
 1.6650000  -1.9935100   0.0895224   0.7945180   0.0000000   0.0000000  -0.0345317   0.5761330   0.9564230  -0.1257850   0.0000000   0.0000000   0.0000000   0.6655840   0.5496410   0.4072380   0.0000000   0.0000000   0.0000000
 1.6700000  -1.9906200   0.0943113   0.7938940   0.0000000   0.0000000  -0.0350971   0.5794700   0.9591190  -0.1237180   0.0000000   0.0000000   0.0000000   0.6691780   0.5287760   0.4191730   0.0000000   0.0000000   0.0000000
 1.6750000  -1.9877100   0.0991134   0.7932810   0.0000000   0.0000000  -0.0356686   0.5828250   0.9617100  -0.1215930   0.0000000   0.0000000   0.0000000   0.6725220   0.5076620   0.4308580   0.0000000   0.0000000   0.0000000
 1.6800000  -1.9847900   0.1039280   0.7926780   0.0000000   0.0000000  -0.0362464   0.5861950   0.9641950  -0.1194100   0.0000000   0.0000000   0.0000000   0.6756160   0.4862970   0.4422940   0.0000000   0.0000000   0.0000000
 1.6850000  -1.9818500   0.1087550   0.7920870   0.0000000   0.0000000  -0.0368305   0.5895810   0.9665730  -0.1171710   0.0000000   0.0000000   0.0000000   0.6784600   0.4646830   0.4534790   0.0000000   0.0000000   0.0000000
 1.6900000  -1.9788900   0.1135940   0.7915070   0.0000000   0.0000000  -0.0374209   0.5929790   0.9688420  -0.1148760   0.0000000   0.0000000   0.0000000   0.6810540   0.4428190   0.4644140   0.0000000   0.0000000   0.0000000
 1.6950000  -1.9759200   0.1184430   0.7909380   0.0000000   0.0000000  -0.0380174   0.5963910   0.9710010  -0.1125270   0.0000000   0.0000000   0.0000000   0.6833980   0.4207040   0.4750990   0.0000000   0.0000000   0.0000000
 1.7000000  -1.9729300   0.1233040   0.7903820   0.0000000   0.0000000  -0.0386203   0.5998130   0.9730480  -0.1101250   0.0000000   0.0000000   0.0000000   0.6854920   0.3983400   0.4855340   0.0000000   0.0000000   0.0000000
 1.7050000  -1.9699200   0.1281740   0.7898370   0.0000000   0.0000000  -0.0392293   0.6032450   0.9749840  -0.1076720   0.0000000   0.0000000   0.0000000   0.6873360   0.3757250   0.4957200   0.0000000   0.0000000   0.0000000
 1.7100000  -1.9669000   0.1330530   0.7893050   0.0000000   0.0000000  -0.0398447   0.6066860   0.9768050  -0.1051690   0.0000000   0.0000000   0.0000000   0.6889300   0.3528610   0.5056550   0.0000000   0.0000000   0.0000000
 1.7150000  -1.9638600   0.1379420   0.7887850   0.0000000   0.0000000  -0.0404663   0.6101340   0.9785120  -0.1026160   0.0000000   0.0000000   0.0000000   0.6902740   0.3297460   0.5153400   0.0000000   0.0000000   0.0000000
 1.7200000  -1.9608000   0.1428380   0.7882790   0.0000000   0.0000000  -0.0410941   0.6135880   0.9801020  -0.1000160   0.0000000   0.0000000   0.0000000   0.6913680   0.3063820   0.5247750   0.0000000   0.0000000   0.0000000
 1.7250000  -1.9577200   0.1477420   0.7877850   0.0000000   0.0000000  -0.0417282   0.6170470   0.9815750  -0.0973686   0.0000000   0.0000000   0.0000000   0.6922120   0.2827680   0.5339600   0.0000000   0.0000000   0.0000000
 1.7300000  -1.9546300   0.1526540   0.7873050   0.0000000   0.0000000  -0.0423685   0.6205100   0.9829300  -0.0946764   0.0000000   0.0000000   0.0000000   0.6928060   0.2589030   0.5428960   0.0000000   0.0000000   0.0000000
 1.7350000  -1.9515200   0.1575720   0.7868390   0.0000000   0.0000000  -0.0430151   0.6239750   0.9841640  -0.0919401   0.0000000   0.0000000   0.0000000   0.6931500   0.2347890   0.5515810   0.0000000   0.0000000   0.0000000
 1.7400000  -1.9483900   0.1624950   0.7863860   0.0000000   0.0000000  -0.0436679   0.6274410   0.9852770  -0.0891610   0.0000000   0.0000000   0.0000000   0.6932440   0.2104240   0.5600160   0.0000000   0.0000000   0.0000000
 1.7450000  -1.9452400   0.1674240   0.7859470   0.0000000   0.0000000  -0.0443270   0.6309070   0.9862680  -0.0863404   0.0000000   0.0000000   0.0000000   0.6930880   0.1858100   0.5682010   0.0000000   0.0000000   0.0000000
 1.7500000  -1.9420800   0.1723580   0.7855230   0.0000000   0.0000000  -0.0449923   0.6343720   0.9871350  -0.0834794   0.0000000   0.0000000   0.0000000   0.6926820   0.1609450   0.5761360   0.0000000   0.0000000   0.0000000
 1.7550000  -1.9389000   0.1772950   0.7851120   0.0000000   0.0000000  -0.0456639   0.6378330   0.9878770  -0.0805794   0.0000000   0.0000000   0.0000000   0.6920260   0.1359460   0.5838220   0.0000000   0.0000000   0.0000000
 1.7600000  -1.9357000   0.1822360   0.7847170   0.0000000   0.0000000  -0.0463417   0.6412910   0.9884940  -0.0776416   0.0000000   0.0000000   0.0000000   0.6911200   0.1109460   0.5912570   0.0000000   0.0000000   0.0000000
 1.7650000  -1.9324800   0.1871800   0.7843360   0.0000000   0.0000000  -0.0470258   0.6447440   0.9889860  -0.0746673   0.0000000   0.0000000   0.0000000   0.6899640   0.0859456   0.5984420   0.0000000   0.0000000   0.0000000
 1.7700000  -1.9292500   0.1921260   0.7839700   0.0000000   0.0000000  -0.0477161   0.6481910   0.9893540  -0.0716576   0.0000000   0.0000000   0.0000000   0.6885580   0.0609456   0.6053770   0.0000000   0.0000000   0.0000000
 1.7750000  -1.9260000   0.1970730   0.7836200   0.0000000   0.0000000  -0.0484127   0.6516290   0.9895960  -0.0686139   0.0000000   0.0000000   0.0000000   0.6869020   0.0359456   0.6120620   0.0000000   0.0000000   0.0000000
 1.7800000  -1.9227400   0.2020220   0.7832840   0.0000000   0.0000000  -0.0491155   0.6550590   0.9897130  -0.0655374   0.0000000   0.0000000   0.0000000   0.6849960   0.0109456   0.6184980   0.0000000   0.0000000   0.0000000
 1.7850000  -1.9194500   0.2069700   0.7829640   0.0000000   0.0000000  -0.0498246   0.6584790   0.9897050  -0.0624293   0.0000000   0.0000000   0.0000000   0.6828410  -0.0140544   0.6246830   0.0000000   0.0000000   0.0000000
 1.7900000  -1.9161500   0.2119180   0.7826600   0.0000000   0.0000000  -0.0505399   0.6618870   0.9895730  -0.0592910   0.0000000   0.0000000   0.0000000   0.6804350  -0.0390544   0.6306180   0.0000000   0.0000000   0.0000000
 1.7950000  -1.9128300   0.2168660   0.7823710   0.0000000   0.0000000  -0.0512615   0.6652830   0.9893150  -0.0561236   0.0000000   0.0000000   0.0000000   0.6777790  -0.0640544   0.6363030   0.0000000   0.0000000   0.0000000
 1.8000000  -1.9095000   0.2218110   0.7820990   0.0000000   0.0000000  -0.0519893   0.6686650   0.9889320  -0.0529284   0.0000000   0.0000000   0.0000000   0.6748730  -0.0890232   0.6417380   0.0000000   0.0000000   0.0000000
 1.8050000  -1.9061500   0.2267550   0.7818420   0.0000000   0.0000000  -0.0527234   0.6720310   0.9884250  -0.0497066   0.0000000   0.0000000   0.0000000   0.6717170  -0.1137730   0.6469240   0.0000000   0.0000000   0.0000000
 1.8100000  -1.9027800   0.2316950   0.7816020   0.0000000   0.0000000  -0.0534637   0.6753810   0.9877950  -0.0464596   0.0000000   0.0000000   0.0000000   0.6683110  -0.1382740   0.6518590   0.0000000   0.0000000   0.0000000
 1.8150000  -1.8993900   0.2366330   0.7813780   0.0000000   0.0000000  -0.0542103   0.6787140   0.9870430  -0.0431884   0.0000000   0.0000000   0.0000000   0.6646550  -0.1625240   0.6565440   0.0000000   0.0000000   0.0000000
 1.8200000  -1.8959900   0.2415660   0.7811700   0.0000000   0.0000000  -0.0549631   0.6820270   0.9861700  -0.0398945   0.0000000   0.0000000   0.0000000   0.6607490  -0.1865240   0.6609790   0.0000000   0.0000000   0.0000000
 1.8250000  -1.8925700   0.2464940   0.7809790   0.0000000   0.0000000  -0.0557222   0.6853210   0.9851780  -0.0365791   0.0000000   0.0000000   0.0000000   0.6565930  -0.2102740   0.6651640   0.0000000   0.0000000   0.0000000
 1.8300000  -1.8891400   0.2514170   0.7808040   0.0000000   0.0000000  -0.0564875   0.6885930   0.9840680  -0.0332433   0.0000000   0.0000000   0.0000000   0.6521870  -0.2337740   0.6691000   0.0000000   0.0000000   0.0000000
 1.8350000  -1.8856900   0.2563350   0.7806460   0.0000000   0.0000000  -0.0572591   0.6918420   0.9828400  -0.0298885   0.0000000   0.0000000   0.0000000   0.6475310  -0.2570250   0.6727850   0.0000000   0.0000000   0.0000000
 1.8400000  -1.8822200   0.2612450   0.7805050   0.0000000   0.0000000  -0.0580370   0.6950680   0.9814980  -0.0265159   0.0000000   0.0000000   0.0000000   0.6426250  -0.2800250   0.6762200   0.0000000   0.0000000   0.0000000
 1.8450000  -1.8787400   0.2661490   0.7803810   0.0000000   0.0000000  -0.0588210   0.6982680   0.9800410  -0.0231267   0.0000000   0.0000000   0.0000000   0.6374690  -0.3027750   0.6794050   0.0000000   0.0000000   0.0000000
 1.8500000  -1.8752400   0.2710460   0.7802740   0.0000000   0.0000000  -0.0596114   0.7014420   0.9784700  -0.0197222   0.0000000   0.0000000   0.0000000   0.6320630  -0.3252750   0.6823400   0.0000000   0.0000000   0.0000000
 1.8550000  -1.8717200   0.2759340   0.7801840   0.0000000   0.0000000  -0.0604079   0.7045880   0.9767880  -0.0163037   0.0000000   0.0000000   0.0000000   0.6264070  -0.3475250   0.6850260   0.0000000   0.0000000   0.0000000
 1.8600000  -1.8681900   0.2808130   0.7801110   0.0000000   0.0000000  -0.0612108   0.7077060   0.9749960  -0.0128724   0.0000000   0.0000000   0.0000000   0.6205010  -0.3695260   0.6874610   0.0000000   0.0000000   0.0000000
 1.8650000  -1.8646400   0.2856840   0.7800550   0.0000000   0.0000000  -0.0620198   0.7107930   0.9730930  -0.0094295   0.0000000   0.0000000   0.0000000   0.6143450  -0.3912760   0.6896460   0.0000000   0.0000000   0.0000000
 1.8700000  -1.8610800   0.2905440   0.7800170   0.0000000   0.0000000  -0.0628352   0.7138490   0.9710830  -0.0059764   0.0000000   0.0000000   0.0000000   0.6079390  -0.4127760   0.6915810   0.0000000   0.0000000   0.0000000
 1.8750000  -1.8575100   0.2953940   0.7799950   0.0000000   0.0000000  -0.0636568   0.7168720   0.9689660  -0.0025141   0.0000000   0.0000000   0.0000000   0.6012830  -0.4340260   0.6932660   0.0000000   0.0000000   0.0000000
 1.8800000  -1.8539100   0.3002340   0.7799920   0.0000000   0.0000000  -0.0644846   0.7198610   0.9667430   0.0009559   0.0000000   0.0000000   0.0000000   0.5943770  -0.4550260   0.6947010   0.0000000   0.0000000   0.0000000
 1.8850000  -1.8503100   0.3050620   0.7800050   0.0000000   0.0000000  -0.0653187   0.7228150   0.9644160   0.0044325   0.0000000   0.0000000   0.0000000   0.5872210  -0.4757770   0.6958870   0.0000000   0.0000000   0.0000000
 1.8900000  -1.8466900   0.3098780   0.7800360   0.0000000   0.0000000  -0.0661590   0.7257330   0.9619860   0.0079143   0.0000000   0.0000000   0.0000000   0.5798150  -0.4962770   0.6968220   0.0000000   0.0000000   0.0000000
 1.8950000  -1.8430500   0.3146810   0.7800840   0.0000000   0.0000000  -0.0670056   0.7286130   0.9594540   0.0114003   0.0000000   0.0000000   0.0000000   0.5721590  -0.5165270   0.6975070   0.0000000   0.0000000   0.0000000
 1.9000000  -1.8394000   0.3194720   0.7801500   0.0000000   0.0000000  -0.0678584   0.7314540   0.9568210   0.0148890   0.0000000   0.0000000   0.0000000   0.5642530  -0.5365270   0.6979420   0.0000000   0.0000000   0.0000000
 1.9050000  -1.8357400   0.3242490   0.7802330   0.0000000   0.0000000  -0.0687175   0.7342550   0.9540890   0.0183793   0.0000000   0.0000000   0.0000000   0.5560970  -0.5562770   0.6981270   0.0000000   0.0000000   0.0000000
 1.9100000  -1.8320600   0.3290130   0.7803340   0.0000000   0.0000000  -0.0695828   0.7370150   0.9512590   0.0218699   0.0000000   0.0000000   0.0000000   0.5476910  -0.5757780   0.6980630   0.0000000   0.0000000   0.0000000
 1.9150000  -1.8283700   0.3337620   0.7804520   0.0000000   0.0000000  -0.0704544   0.7397320   0.9483320   0.0253595   0.0000000   0.0000000   0.0000000   0.5390350  -0.5950280   0.6977480   0.0000000   0.0000000   0.0000000
 1.9200000  -1.8246600   0.3384960   0.7805870   0.0000000   0.0000000  -0.0713322   0.7424050   0.9453090   0.0288469   0.0000000   0.0000000   0.0000000   0.5301290  -0.6140280   0.6971830   0.0000000   0.0000000   0.0000000
 1.9250000  -1.8209400   0.3432150   0.7807400   0.0000000   0.0000000  -0.0722163   0.7450330   0.9421920   0.0323309   0.0000000   0.0000000   0.0000000   0.5209730  -0.6327780   0.6963680   0.0000000   0.0000000   0.0000000
 1.9300000  -1.8172100   0.3479180   0.7809110   0.0000000   0.0000000  -0.0731066   0.7476140   0.9389820   0.0358102   0.0000000   0.0000000   0.0000000   0.5115670  -0.6512780   0.6953030   0.0000000   0.0000000   0.0000000
 1.9350000  -1.8134700   0.3526040   0.7810980   0.0000000   0.0000000  -0.0740032   0.7501480   0.9356790   0.0392835   0.0000000   0.0000000   0.0000000   0.5019110  -0.6695290   0.6939890   0.0000000   0.0000000   0.0000000
 1.9400000  -1.8097100   0.3572740   0.7813030   0.0000000   0.0000000  -0.0749060   0.7526330   0.9322870   0.0427496   0.0000000   0.0000000   0.0000000   0.4920050  -0.6875290   0.6924240   0.0000000   0.0000000   0.0000000
 1.9450000  -1.8059400   0.3619270   0.7815260   0.0000000   0.0000000  -0.0758151   0.7550670   0.9288050   0.0462073   0.0000000   0.0000000   0.0000000   0.4818490  -0.7052790   0.6906090   0.0000000   0.0000000   0.0000000
 1.9500000  -1.8021600   0.3665620   0.7817650   0.0000000   0.0000000  -0.0767304   0.7574510   0.9252340   0.0496553   0.0000000   0.0000000   0.0000000   0.4714430  -0.7227790   0.6885440   0.0000000   0.0000000   0.0000000
 1.9550000  -1.7983700   0.3711790   0.7820220   0.0000000   0.0000000  -0.0776520   0.7597810   0.9215770   0.0530924   0.0000000   0.0000000   0.0000000   0.4607870  -0.7400290   0.6862290   0.0000000   0.0000000   0.0000000
 1.9600000  -1.7945600   0.3757780   0.7822960   0.0000000   0.0000000  -0.0785798   0.7620580   0.9178340   0.0565172   0.0000000   0.0000000   0.0000000   0.4498810  -0.7570290   0.6836650   0.0000000   0.0000000   0.0000000
 1.9650000  -1.7907400   0.3803570   0.7825870   0.0000000   0.0000000  -0.0795139   0.7642800   0.9140070   0.0599286   0.0000000   0.0000000   0.0000000   0.4387250  -0.7737800   0.6808500   0.0000000   0.0000000   0.0000000
 1.9700000  -1.7869200   0.3849180   0.7828960   0.0000000   0.0000000  -0.0804542   0.7664450   0.9100970   0.0633253   0.0000000   0.0000000   0.0000000   0.4273190  -0.7902800   0.6777850   0.0000000   0.0000000   0.0000000
 1.9750000  -1.7830800   0.3894580   0.7832210   0.0000000   0.0000000  -0.0814008   0.7685530   0.9061050   0.0667060   0.0000000   0.0000000   0.0000000   0.4156630  -0.8065300   0.6744700   0.0000000   0.0000000   0.0000000
 1.9800000  -1.7792300   0.3939790   0.7835630   0.0000000   0.0000000  -0.0823536   0.7706010   0.9020320   0.0700696   0.0000000   0.0000000   0.0000000   0.4037570  -0.8225300   0.6709050   0.0000000   0.0000000   0.0000000
 1.9850000  -1.7753700   0.3984780   0.7839210   0.0000000   0.0000000  -0.0833127   0.7725900   0.8978800   0.0734147   0.0000000   0.0000000   0.0000000   0.3916010  -0.8382800   0.6670910   0.0000000   0.0000000   0.0000000
 1.9900000  -1.7715100   0.4029570   0.7842970   0.0000000   0.0000000  -0.0842780   0.7745170   0.8936500   0.0767401   0.0000000   0.0000000   0.0000000   0.3791950  -0.8537810   0.6630260   0.0000000   0.0000000   0.0000000
 1.9950000  -1.7676300   0.4074150   0.7846890   0.0000000   0.0000000  -0.0852496   0.7763810   0.8893430   0.0800445   0.0000000   0.0000000   0.0000000   0.3665400  -0.8690310   0.6587110   0.0000000   0.0000000   0.0000000
 2.0000000  -1.7637400   0.4118510   0.7850970   0.0000000   0.0000000  -0.0862275   0.7781820   0.8849600   0.0833267   0.0000000   0.0000000   0.0000000   0.3536340  -0.8840310   0.6541460   0.0000000   0.0000000   0.0000000
 2.0050000  -1.7598500   0.4162640   0.7855220   0.0000000   0.0000000  -0.0872115   0.7799170   0.8805030   0.0865855   0.0000000   0.0000000   0.0000000   0.3404780  -0.8987810   0.6493310   0.0000000   0.0000000   0.0000000
 2.0100000  -1.7559400   0.4206560   0.7859630   0.0000000   0.0000000  -0.0882019   0.7815860   0.8759730   0.0898196   0.0000000   0.0000000   0.0000000   0.3270720  -0.9132810   0.6442670   0.0000000   0.0000000   0.0000000
 2.0150000  -1.7520300   0.4250240   0.7864200   0.0000000   0.0000000  -0.0891984   0.7831880   0.8713700   0.0930278   0.0000000   0.0000000   0.0000000   0.3134160  -0.9275320   0.6389520   0.0000000   0.0000000   0.0000000
 2.0200000  -1.7481100   0.4293690   0.7868930   0.0000000   0.0000000  -0.0902013   0.7847200   0.8666980   0.0962087   0.0000000   0.0000000   0.0000000   0.2995340  -0.9415320   0.6333870   0.0000000   0.0000000   0.0000000
 2.0250000  -1.7441800   0.4336910   0.7873820   0.0000000   0.0000000  -0.0912103   0.7861830   0.8619550   0.0993612   0.0000000   0.0000000   0.0000000   0.2857840  -0.9552820   0.6275720   0.0000000   0.0000000   0.0000000
 2.0300000  -1.7402500   0.4379890   0.7878870   0.0000000   0.0000000  -0.0922257   0.7875780   0.8571450   0.1024840   0.0000000   0.0000000   0.0000000   0.2722840  -0.9687820   0.6215070   0.0000000   0.0000000   0.0000000
 2.0350000  -1.7363100   0.4422620   0.7884070   0.0000000   0.0000000  -0.0932472   0.7889060   0.8522680   0.1055760   0.0000000   0.0000000   0.0000000   0.2590340  -0.9820320   0.6151930   0.0000000   0.0000000   0.0000000
 2.0400000  -1.7323600   0.4465110   0.7889420   0.0000000   0.0000000  -0.0942751   0.7901690   0.8473250   0.1086360   0.0000000   0.0000000   0.0000000   0.2460330  -0.9950330   0.6086280   0.0000000   0.0000000   0.0000000
 2.0450000  -1.7284100   0.4507350   0.7894930   0.0000000   0.0000000  -0.0953092   0.7913670   0.8423180   0.1116620   0.0000000   0.0000000   0.0000000   0.2332830  -1.0077800   0.6018130   0.0000000   0.0000000   0.0000000
 2.0500000  -1.7244500   0.4549340   0.7900590   0.0000000   0.0000000  -0.0963495   0.7925020   0.8372480   0.1146530   0.0000000   0.0000000   0.0000000   0.2207830  -1.0202800   0.5947480   0.0000000   0.0000000   0.0000000
 2.0550000  -1.7204800   0.4591080   0.7906400   0.0000000   0.0000000  -0.0973961   0.7935750   0.8321160   0.1176090   0.0000000   0.0000000   0.0000000   0.2085330  -1.0325300   0.5874330   0.0000000   0.0000000   0.0000000
 2.0600000  -1.7165100   0.4632550   0.7912350   0.0000000   0.0000000  -0.0984489   0.7945880   0.8269230   0.1205270   0.0000000   0.0000000   0.0000000   0.1965330  -1.0445300   0.5798690   0.0000000   0.0000000   0.0000000
 2.0650000  -1.7125400   0.4673770   0.7918450   0.0000000   0.0000000  -0.0995080   0.7955410   0.8216710   0.1234070   0.0000000   0.0000000   0.0000000   0.1847830  -1.0562800   0.5720540   0.0000000   0.0000000   0.0000000
 2.0700000  -1.7085600   0.4714720   0.7924690   0.0000000   0.0000000  -0.1005733   0.7964360   0.8163610   0.1262470   0.0000000   0.0000000   0.0000000   0.1732830  -1.0677800   0.5639890   0.0000000   0.0000000   0.0000000
 2.0750000  -1.7045700   0.4755400   0.7931070   0.0000000   0.0000000  -0.1016449   0.7972740   0.8109930   0.1290470   0.0000000   0.0000000   0.0000000   0.1620330  -1.0790300   0.5556740   0.0000000   0.0000000   0.0000000
 2.0800000  -1.7005800   0.4795820   0.7937590   0.0000000   0.0000000  -0.1027227   0.7980570   0.8055710   0.1318040   0.0000000   0.0000000   0.0000000   0.1510320  -1.0900300   0.5471090   0.0000000   0.0000000   0.0000000
 2.0850000  -1.6965900   0.4835960   0.7944250   0.0000000   0.0000000  -0.1038068   0.7987850   0.8000930   0.1345170   0.0000000   0.0000000   0.0000000   0.1402820  -1.1007800   0.5382940   0.0000000   0.0000000   0.0000000
 2.0900000  -1.6926000   0.4875830   0.7951050   0.0000000   0.0000000  -0.1048971   0.7994600   0.7945630   0.1371860   0.0000000   0.0000000   0.0000000   0.1297820  -1.1112800   0.5292300   0.0000000   0.0000000   0.0000000
 2.0950000  -1.6886000   0.4915410   0.7957970   0.0000000   0.0000000  -0.1059937   0.8000830   0.7889810   0.1398090   0.0000000   0.0000000   0.0000000   0.1195320  -1.1215300   0.5199150   0.0000000   0.0000000   0.0000000
 2.1000000  -1.6846000   0.4954720   0.7965030   0.0000000   0.0000000  -0.1070965   0.8006560   0.7833480   0.1423850   0.0000000   0.0000000   0.0000000   0.1095320  -1.1315300   0.5103500   0.0000000   0.0000000   0.0000000
 2.1050000  -1.6805900   0.4993750   0.7972210   0.0000000   0.0000000  -0.1082056   0.8011790   0.7776660   0.1449120   0.0000000   0.0000000   0.0000000   0.0997817  -1.1412900   0.5006340   0.0000000   0.0000000   0.0000000
 2.1100000  -1.6765800   0.5032490   0.7979520   0.0000000   0.0000000  -0.1093209   0.8016540   0.7719360   0.1473920   0.0000000   0.0000000   0.0000000   0.0902816  -1.1507900   0.4911340   0.0000000   0.0000000   0.0000000
 2.1150000  -1.6725700   0.5070940   0.7986950   0.0000000   0.0000000  -0.1104425   0.8020820   0.7661590   0.1498240   0.0000000   0.0000000   0.0000000   0.0810315  -1.1600400   0.4818830   0.0000000   0.0000000   0.0000000
 2.1200000  -1.6685600   0.5109100   0.7994500   0.0000000   0.0000000  -0.1115703   0.8024650   0.7603360   0.1522110   0.0000000   0.0000000   0.0000000   0.0720313  -1.1690400   0.4728830   0.0000000   0.0000000   0.0000000
 2.1250000  -1.6645500   0.5146970   0.8002170   0.0000000   0.0000000  -0.1127044   0.8028030   0.7544690   0.1545530   0.0000000   0.0000000   0.0000000   0.0632812  -1.1777900   0.4641320   0.0000000   0.0000000   0.0000000
 2.1300000  -1.6605400   0.5184550   0.8009950   0.0000000   0.0000000  -0.1138447   0.8030980   0.7485580   0.1568530   0.0000000   0.0000000   0.0000000   0.0547811  -1.1862900   0.4556320   0.0000000   0.0000000   0.0000000
 2.1350000  -1.6565200   0.5221830   0.8017850   0.0000000   0.0000000  -0.1149913   0.8033510   0.7426060   0.1591100   0.0000000   0.0000000   0.0000000   0.0465309  -1.1945400   0.4473820   0.0000000   0.0000000   0.0000000
 2.1400000  -1.6525000   0.5258810   0.8025860   0.0000000   0.0000000  -0.1161441   0.8035640   0.7366140   0.1613270   0.0000000   0.0000000   0.0000000   0.0385308  -1.2025400   0.4393810   0.0000000   0.0000000   0.0000000
 2.1450000  -1.6484800   0.5295490   0.8033980   0.0000000   0.0000000  -0.1173032   0.8037370   0.7305810   0.1635040   0.0000000   0.0000000   0.0000000   0.0307807  -1.2102900   0.4316310   0.0000000   0.0000000   0.0000000
 2.1500000  -1.6444600   0.5331870   0.8042210   0.0000000   0.0000000  -0.1184685   0.8038720   0.7245110   0.1656440   0.0000000   0.0000000   0.0000000   0.0232806  -1.2177900   0.4241300   0.0000000   0.0000000   0.0000000
 2.1550000  -1.6404400   0.5367940   0.8050550   0.0000000   0.0000000  -0.1196401   0.8039700   0.7184040   0.1677460   0.0000000   0.0000000   0.0000000   0.0160304  -1.2250400   0.4168800   0.0000000   0.0000000   0.0000000
 2.1600000  -1.6364200   0.5403710   0.8058990   0.0000000   0.0000000  -0.1208180   0.8040330   0.7122610   0.1698130   0.0000000   0.0000000   0.0000000   0.0090303  -1.2320400   0.4098800   0.0000000   0.0000000   0.0000000
 2.1650000  -1.6324000   0.5439170   0.8067530   0.0000000   0.0000000  -0.1220020   0.8040610   0.7060840   0.1718450   0.0000000   0.0000000   0.0000000   0.0022802  -1.2387900   0.4031290   0.0000000   0.0000000   0.0000000
 2.1700000  -1.6283800   0.5474310   0.8076170   0.0000000   0.0000000  -0.1231924   0.8040560   0.6998740   0.1738450   0.0000000   0.0000000   0.0000000  -0.0042200  -1.2452900   0.3966290   0.0000000   0.0000000   0.0000000
 2.1750000  -1.6243600   0.5509150   0.8084910   0.0000000   0.0000000  -0.1243889   0.8040190   0.6936310   0.1758120   0.0000000   0.0000000   0.0000000  -0.0104701  -1.2515400   0.3903780   0.0000000   0.0000000   0.0000000
 2.1800000  -1.6203400   0.5543680   0.8093750   0.0000000   0.0000000  -0.1255918   0.8039520   0.6873590   0.1777490   0.0000000   0.0000000   0.0000000  -0.0164702  -1.2575400   0.3843780   0.0000000   0.0000000   0.0000000
 2.1850000  -1.6163200   0.5577890   0.8102690   0.0000000   0.0000000  -0.1268008   0.8038550   0.6810570   0.1796560   0.0000000   0.0000000   0.0000000  -0.0222203  -1.2632900   0.3786280   0.0000000   0.0000000   0.0000000
 2.1900000  -1.6123100   0.5611780   0.8111720   0.0000000   0.0000000  -0.1280162   0.8037300   0.6747260   0.1815350   0.0000000   0.0000000   0.0000000  -0.0277205  -1.2687900   0.3731270   0.0000000   0.0000000   0.0000000
 2.1950000  -1.6082900   0.5645360   0.8120840   0.0000000   0.0000000  -0.1292377   0.8035780   0.6683690   0.1833880   0.0000000   0.0000000   0.0000000  -0.0329706  -1.2740400   0.3678770   0.0000000   0.0000000   0.0000000
 2.2000000  -1.6042700   0.5678620   0.8130050   0.0000000   0.0000000  -0.1304656   0.8034010   0.6619860   0.1852150   0.0000000   0.0000000   0.0000000  -0.0379707  -1.2790400   0.3628760   0.0000000   0.0000000   0.0000000
 2.2050000  -1.6002500   0.5711560   0.8139360   0.0000000   0.0000000  -0.1316997   0.8031990   0.6555790   0.1870170   0.0000000   0.0000000   0.0000000  -0.0427209  -1.2837900   0.3581260   0.0000000   0.0000000   0.0000000
 2.2100000  -1.5962400   0.5744180   0.8148760   0.0000000   0.0000000  -0.1329400   0.8029740   0.6491490   0.1887960   0.0000000   0.0000000   0.0000000  -0.0472210  -1.2882900   0.3536260   0.0000000   0.0000000   0.0000000
 2.2150000  -1.5922200   0.5776470   0.8158240   0.0000000   0.0000000  -0.1341866   0.8027270   0.6426970   0.1905540   0.0000000   0.0000000   0.0000000  -0.0514711  -1.2925400   0.3493750   0.0000000   0.0000000   0.0000000
 2.2200000  -1.5882100   0.5808450   0.8167810   0.0000000   0.0000000  -0.1354394   0.8024600   0.6362240   0.1922900   0.0000000   0.0000000   0.0000000  -0.0554713  -1.2965400   0.3453750   0.0000000   0.0000000   0.0000000
 2.2250000  -1.5842000   0.5840090   0.8177470   0.0000000   0.0000000  -0.1366985   0.8021730   0.6297320   0.1940080   0.0000000   0.0000000   0.0000000  -0.0592214  -1.3002900   0.3416240   0.0000000   0.0000000   0.0000000
 2.2300000  -1.5801900   0.5871420   0.8187210   0.0000000   0.0000000  -0.1379638   0.8018680   0.6232210   0.1957070   0.0000000   0.0000000   0.0000000  -0.0627215  -1.3037900   0.3381240   0.0000000   0.0000000   0.0000000
 2.2350000  -1.5761800   0.5902420   0.8197040   0.0000000   0.0000000  -0.1392354   0.8015460   0.6166940   0.1973890   0.0000000   0.0000000   0.0000000  -0.0659716  -1.3070400   0.3348740   0.0000000   0.0000000   0.0000000
 2.2400000  -1.5721700   0.5933090   0.8206950   0.0000000   0.0000000  -0.1405130   0.8012090   0.6101510   0.1990560   0.0000000   0.0000000   0.0000000  -0.0689718  -1.3100400   0.3318730   0.0000000   0.0000000   0.0000000
 2.2450000  -1.5681700   0.5963430   0.8216940   0.0000000   0.0000000  -0.1417970   0.8008570   0.6035940   0.2007090   0.0000000   0.0000000   0.0000000  -0.0717219  -1.3127900   0.3291230   0.0000000   0.0000000   0.0000000
 2.2500000  -1.5641600   0.5993450   0.8227020   0.0000000   0.0000000  -0.1430880   0.8004920   0.5970240   0.2023480   0.0000000   0.0000000   0.0000000  -0.0742220  -1.3152900   0.3266220   0.0000000   0.0000000   0.0000000
 2.2550000  -1.5601600   0.6023130   0.8237180   0.0000000   0.0000000  -0.1443840   0.8001150   0.5904420   0.2039750   0.0000000   0.0000000   0.0000000  -0.0764722  -1.3175400   0.3243720   0.0000000   0.0000000   0.0000000
 2.2600000  -1.5561600   0.6052490   0.8247420   0.0000000   0.0000000  -0.1456870   0.7997270   0.5838490   0.2055920   0.0000000   0.0000000   0.0000000  -0.0784723  -1.3195400   0.3223720   0.0000000   0.0000000   0.0000000
 2.2650000  -1.5521700   0.6081520   0.8257740   0.0000000   0.0000000  -0.1469960   0.7993310   0.5772470   0.2071990   0.0000000   0.0000000   0.0000000  -0.0802224  -1.3212900   0.3206210   0.0000000   0.0000000   0.0000000
 2.2700000  -1.5481700   0.6110220   0.8268140   0.0000000   0.0000000  -0.1483110   0.7989260   0.5706360   0.2087990   0.0000000   0.0000000   0.0000000  -0.0817225  -1.3227900   0.3191210   0.0000000   0.0000000   0.0000000
 2.2750000  -1.5441800   0.6138580   0.8278620   0.0000000   0.0000000  -0.1496330   0.7985140   0.5640190   0.2103910   0.0000000   0.0000000   0.0000000  -0.0829727  -1.3240400   0.3178700   0.0000000   0.0000000   0.0000000
 2.2800000  -1.5401900   0.6166620   0.8289180   0.0000000   0.0000000  -0.1509610   0.7980960   0.5573960   0.2119780   0.0000000   0.0000000   0.0000000  -0.0839728  -1.3250400   0.3168700   0.0000000   0.0000000   0.0000000
 2.2850000  -1.5362000   0.6194320   0.8299820   0.0000000   0.0000000  -0.1522950   0.7976740   0.5507690   0.2135600   0.0000000   0.0000000   0.0000000  -0.0847229  -1.3257900   0.3161200   0.0000000   0.0000000   0.0000000
 2.2900000  -1.5322100   0.6221690   0.8310530   0.0000000   0.0000000  -0.1536350   0.7972490   0.5441390   0.2151390   0.0000000   0.0000000   0.0000000  -0.0852231  -1.3262900   0.3156190   0.0000000   0.0000000   0.0000000
 2.2950000  -1.5282200   0.6248740   0.8321330   0.0000000   0.0000000  -0.1549820   0.7968230   0.5375070   0.2167170   0.0000000   0.0000000   0.0000000  -0.0854732  -1.3265400   0.3153690   0.0000000   0.0000000   0.0000000
 2.3000000  -1.5262300   0.6261700   0.8327180   0.0000000   0.0000000  -0.1556220   0.7966110   0.5341600   0.2175350   0.0000000   0.0000000   0.0000000  -0.0855045  -1.3265700   0.3153370   0.0000000   0.0000000   0.0000000
 2.3050000  -1.5222500   0.6288240   0.8338090   0.0000000   0.0000000  -0.1569780   0.7961830   0.5275270   0.2191110   0.0000000   0.0000000   0.0000000  -0.0853795  -1.3267000   0.3152120   0.0000000   0.0000000   0.0000000
 2.3100000  -1.5182700   0.6314450   0.8349090   0.0000000   0.0000000  -0.1583400   0.7957570   0.5208920   0.2206860   0.0000000   0.0000000   0.0000000  -0.0850045  -1.3270700   0.3148370   0.0000000   0.0000000   0.0000000
 2.3150000  -1.5142900   0.6340330   0.8360160   0.0000000   0.0000000  -0.1597090   0.7953340   0.5142560   0.2222590   0.0000000   0.0000000   0.0000000  -0.0843795  -1.3277000   0.3142120   0.0000000   0.0000000   0.0000000
 2.3200000  -1.5103100   0.6365880   0.8371310   0.0000000   0.0000000  -0.1610840   0.7949140   0.5076150   0.2238280   0.0000000   0.0000000   0.0000000  -0.0835045  -1.3285700   0.3133370   0.0000000   0.0000000   0.0000000
 2.3250000  -1.5063400   0.6391090   0.8382540   0.0000000   0.0000000  -0.1624650   0.7944990   0.5009690   0.2253920   0.0000000   0.0000000   0.0000000  -0.0823795  -1.3297000   0.3122120   0.0000000   0.0000000   0.0000000
 2.3300000  -1.5023700   0.6415970   0.8393850   0.0000000   0.0000000  -0.1638520   0.7940910   0.4943180   0.2269500   0.0000000   0.0000000   0.0000000  -0.0810045  -1.3310700   0.3108370   0.0000000   0.0000000   0.0000000
 2.3350000  -1.4984000   0.6440520   0.8405240   0.0000000   0.0000000  -0.1652450   0.7936900   0.4876580   0.2285000   0.0000000   0.0000000   0.0000000  -0.0793795  -1.3327000   0.3092120   0.0000000   0.0000000   0.0000000
 2.3400000  -1.4944300   0.6464740   0.8416700   0.0000000   0.0000000  -0.1666450   0.7932970   0.4809900   0.2300420   0.0000000   0.0000000   0.0000000  -0.0775045  -1.3345700   0.3073370   0.0000000   0.0000000   0.0000000
 2.3450000  -1.4904600   0.6488620   0.8428240   0.0000000   0.0000000  -0.1680510   0.7929150   0.4743120   0.2315730   0.0000000   0.0000000   0.0000000  -0.0753795  -1.3367000   0.3052120   0.0000000   0.0000000   0.0000000
 2.3500000  -1.4865000   0.6512170   0.8439860   0.0000000   0.0000000  -0.1694630   0.7925440   0.4676230   0.2330930   0.0000000   0.0000000   0.0000000  -0.0730045  -1.3390700   0.3028370   0.0000000   0.0000000   0.0000000
 2.3550000  -1.4825400   0.6535380   0.8451550   0.0000000   0.0000000  -0.1708820   0.7921850   0.4609210   0.2346010   0.0000000   0.0000000   0.0000000  -0.0703795  -1.3417000   0.3002120   0.0000000   0.0000000   0.0000000
 2.3600000  -1.4785800   0.6558260   0.8463320   0.0000000   0.0000000  -0.1723060   0.7918400   0.4542050   0.2360950   0.0000000   0.0000000   0.0000000  -0.0675045  -1.3445700   0.2973370   0.0000000   0.0000000   0.0000000
 2.3650000  -1.4746200   0.6580800   0.8475160   0.0000000   0.0000000  -0.1737370   0.7915110   0.4474750   0.2375740   0.0000000   0.0000000   0.0000000  -0.0643795  -1.3477000   0.2942120   0.0000000   0.0000000   0.0000000
 2.3700000  -1.4706600   0.6603010   0.8487080   0.0000000   0.0000000  -0.1751750   0.7911970   0.4407280   0.2390370   0.0000000   0.0000000   0.0000000  -0.0610045  -1.3510700   0.2908370   0.0000000   0.0000000   0.0000000
 2.3750000  -1.4667100   0.6624880   0.8499060   0.0000000   0.0000000  -0.1766180   0.7909010   0.4339640   0.2404820   0.0000000   0.0000000   0.0000000  -0.0573795  -1.3547000   0.2872120   0.0000000   0.0000000   0.0000000
 2.3800000  -1.4627500   0.6646400   0.8511120   0.0000000   0.0000000  -0.1780680   0.7906240   0.4271810   0.2419080   0.0000000   0.0000000   0.0000000  -0.0535045  -1.3585700   0.2833370   0.0000000   0.0000000   0.0000000
 2.3850000  -1.4588000   0.6667590   0.8523260   0.0000000   0.0000000  -0.1795240   0.7903660   0.4203770   0.2433150   0.0000000   0.0000000   0.0000000  -0.0493795  -1.3627000   0.2792120   0.0000000   0.0000000   0.0000000
 2.3900000  -1.4548500   0.6688440   0.8535460   0.0000000   0.0000000  -0.1809860   0.7901300   0.4135530   0.2447000   0.0000000   0.0000000   0.0000000  -0.0450045  -1.3670700   0.2748370   0.0000000   0.0000000   0.0000000
 2.3950000  -1.4509000   0.6708950   0.8547730   0.0000000   0.0000000  -0.1824540   0.7899170   0.4067060   0.2460630   0.0000000   0.0000000   0.0000000  -0.0403795  -1.3717000   0.2702120   0.0000000   0.0000000   0.0000000
 2.4000000  -1.4469500   0.6729110   0.8560060   0.0000000   0.0000000  -0.1839290   0.7897270   0.3998360   0.2474020   0.0000000   0.0000000   0.0000000  -0.0355045  -1.3765700   0.2653370   0.0000000   0.0000000   0.0000000
 2.4050000  -1.4430000   0.6748930   0.8572460   0.0000000   0.0000000  -0.1854100   0.7895620   0.3929400   0.2487160   0.0000000   0.0000000   0.0000000  -0.0303795  -1.3817000   0.2602120   0.0000000   0.0000000   0.0000000
 2.4100000  -1.4390600   0.6768410   0.8584930   0.0000000   0.0000000  -0.1868970   0.7894240   0.3860180   0.2500030   0.0000000   0.0000000   0.0000000  -0.0250045  -1.3870700   0.2548370   0.0000000   0.0000000   0.0000000
 2.4150000  -1.4351100   0.6787530   0.8597460   0.0000000   0.0000000  -0.1883910   0.7893120   0.3790690   0.2512640   0.0000000   0.0000000   0.0000000  -0.0196236  -1.3927000   0.2492120   0.0000000   0.0000000   0.0000000
 2.4200000  -1.4311600   0.6806310   0.8610060   0.0000000   0.0000000  -0.1898910   0.7892270   0.3720910   0.2524950   0.0000000   0.0000000   0.0000000  -0.0144927  -1.3985700   0.2433370   0.0000000   0.0000000   0.0000000
 2.4250000  -1.4272200   0.6824740   0.8622710   0.0000000   0.0000000  -0.1913960   0.7891670   0.3650830   0.2536970   0.0000000   0.0000000   0.0000000  -0.0096118  -1.4047000   0.2372120   0.0000000   0.0000000   0.0000000
 2.4300000  -1.4232700   0.6842820   0.8635430   0.0000000   0.0000000  -0.1929090   0.7891300   0.3580440   0.2548670   0.0000000   0.0000000   0.0000000  -0.0049809  -1.4109400   0.2308370   0.0000000   0.0000000   0.0000000
 2.4350000  -1.4193300   0.6860550   0.8648200   0.0000000   0.0000000  -0.1944270   0.7891170   0.3509740   0.2560050   0.0000000   0.0000000   0.0000000  -0.0006000  -1.4169400   0.2242120   0.0000000   0.0000000   0.0000000
 2.4400000  -1.4153800   0.6877920   0.8661030   0.0000000   0.0000000  -0.1959520   0.7891240   0.3438750   0.2571090   0.0000000   0.0000000   0.0000000   0.0035310  -1.4227000   0.2173370   0.0000000   0.0000000   0.0000000
 2.4450000  -1.4114300   0.6894930   0.8673910   0.0000000   0.0000000  -0.1974830   0.7891510   0.3367470   0.2581780   0.0000000   0.0000000   0.0000000   0.0074119  -1.4282000   0.2102120   0.0000000   0.0000000   0.0000000
 2.4500000  -1.4074900   0.6911590   0.8686850   0.0000000   0.0000000  -0.1990200   0.7891980   0.3295930   0.2592100   0.0000000   0.0000000   0.0000000   0.0110428  -1.4334600   0.2028370   0.0000000   0.0000000   0.0000000
 2.4550000  -1.4035400   0.6927890   0.8699830   0.0000000   0.0000000  -0.2005640   0.7892610   0.3224130   0.2602060   0.0000000   0.0000000   0.0000000   0.0144237  -1.4384700   0.1952120   0.0000000   0.0000000   0.0000000
 2.4600000  -1.3996000   0.6943830   0.8712860   0.0000000   0.0000000  -0.2021130   0.7893410   0.3152090   0.2611620   0.0000000   0.0000000   0.0000000   0.0175546  -1.4432200   0.1873370   0.0000000   0.0000000   0.0000000
 2.4650000  -1.3956500   0.6959410   0.8725950   0.0000000   0.0000000  -0.2036690   0.7894370   0.3079810   0.2620780   0.0000000   0.0000000   0.0000000   0.0204355  -1.4477300   0.1792120   0.0000000   0.0000000   0.0000000
 2.4700000  -1.3917000   0.6974630   0.8739070   0.0000000   0.0000000  -0.2052310   0.7895450   0.3007320   0.2629540   0.0000000   0.0000000   0.0000000   0.0230665  -1.4519800   0.1708370   0.0000000   0.0000000   0.0000000
 2.4750000  -1.3877500   0.6989480   0.8752240   0.0000000   0.0000000  -0.2068000   0.7896670   0.2934620   0.2637860   0.0000000   0.0000000   0.0000000   0.0254474  -1.4559900   0.1622120   0.0000000   0.0000000   0.0000000
 2.4800000  -1.3838100   0.7003980   0.8765450   0.0000000   0.0000000  -0.2083750   0.7897990   0.2861720   0.2645750   0.0000000   0.0000000   0.0000000   0.0275783  -1.4597400   0.1533370   0.0000000   0.0000000   0.0000000
 2.4850000  -1.3798600   0.7018100   0.8778700   0.0000000   0.0000000  -0.2099560   0.7899420   0.2788650   0.2653190   0.0000000   0.0000000   0.0000000   0.0294592  -1.4632500   0.1442120   0.0000000   0.0000000   0.0000000
 2.4900000  -1.3759100   0.7031860   0.8791980   0.0000000   0.0000000  -0.2115430   0.7900940   0.2715400   0.2660170   0.0000000   0.0000000   0.0000000   0.0310901  -1.4665100   0.1348370   0.0000000   0.0000000   0.0000000
 2.4950000  -1.3719500   0.7045260   0.8805300   0.0000000   0.0000000  -0.2131360   0.7902530   0.2642000   0.2666670   0.0000000   0.0000000   0.0000000   0.0324710  -1.4695100   0.1252120   0.0000000   0.0000000   0.0000000
 2.5000000  -1.3680000   0.7058280   0.8818650   0.0000000   0.0000000  -0.2147360   0.7904180   0.2568460   0.2672690   0.0000000   0.0000000   0.0000000   0.0336019  -1.4722700   0.1153370   0.0000000   0.0000000   0.0000000
 2.5050000  -1.3640500   0.7070940   0.8832020   0.0000000   0.0000000  -0.2163420   0.7905880   0.2494780   0.2678200   0.0000000   0.0000000   0.0000000   0.0344829  -1.4747700   0.1052120   0.0000000   0.0000000   0.0000000
 2.5100000  -1.3601000   0.7083230   0.8845430   0.0000000   0.0000000  -0.2179540   0.7907620   0.2420980   0.2683210   0.0000000   0.0000000   0.0000000   0.0351138  -1.4770300   0.0948373   0.0000000   0.0000000   0.0000000
 2.5150000  -1.3561400   0.7095150   0.8858860   0.0000000   0.0000000  -0.2195730   0.7909390   0.2347080   0.2687680   0.0000000   0.0000000   0.0000000   0.0354947  -1.4790300   0.0842431   0.0000000   0.0000000   0.0000000
 2.5200000  -1.3521900   0.7106700   0.8872300   0.0000000   0.0000000  -0.2211970   0.7911170   0.2273080   0.2691630   0.0000000   0.0000000   0.0000000   0.0356256  -1.4807900   0.0737935   0.0000000   0.0000000   0.0000000
 2.5250000  -1.3482300   0.7117880   0.8885770   0.0000000   0.0000000  -0.2228280   0.7912950   0.2199010   0.2695070   0.0000000   0.0000000   0.0000000   0.0355065  -1.4822900   0.0635940   0.0000000   0.0000000   0.0000000
 2.5300000  -1.3442700   0.7128690   0.8899250   0.0000000   0.0000000  -0.2244660   0.7914720   0.2124860   0.2698000   0.0000000   0.0000000   0.0000000   0.0351374  -1.4835500   0.0536444   0.0000000   0.0000000   0.0000000
 2.5350000  -1.3403200   0.7139130   0.8912750   0.0000000   0.0000000  -0.2261090   0.7916460   0.2050660   0.2700430   0.0000000   0.0000000   0.0000000   0.0345184  -1.4845600   0.0439448   0.0000000   0.0000000   0.0000000
 2.5400000  -1.3363600   0.7149200   0.8926260   0.0000000   0.0000000  -0.2277590   0.7918160   0.1976410   0.2702390   0.0000000   0.0000000   0.0000000   0.0336493  -1.4853100   0.0344952   0.0000000   0.0000000   0.0000000
 2.5450000  -1.3324000   0.7158890   0.8939770   0.0000000   0.0000000  -0.2294150   0.7919820   0.1902130   0.2703890   0.0000000   0.0000000   0.0000000   0.0325302  -1.4858200   0.0252956   0.0000000   0.0000000   0.0000000
 2.5500000  -1.3284400   0.7168220   0.8953300   0.0000000   0.0000000  -0.2310770   0.7921410   0.1827830   0.2704930   0.0000000   0.0000000   0.0000000   0.0311611  -1.4860700   0.0163460   0.0000000   0.0000000   0.0000000
 2.5550000  -1.3244800   0.7177170   0.8966820   0.0000000   0.0000000  -0.2327450   0.7922930   0.1753530   0.2705530   0.0000000   0.0000000   0.0000000   0.0295420  -1.4860800   0.0076465   0.0000000   0.0000000   0.0000000
 2.5600000  -1.3205200   0.7185750   0.8980350   0.0000000   0.0000000  -0.2344200   0.7924360   0.1679230   0.2705700   0.0000000   0.0000000   0.0000000   0.0276729  -1.4858300  -0.0008031   0.0000000   0.0000000   0.0000000
 2.5650000  -1.3165500   0.7193960   0.8993880   0.0000000   0.0000000  -0.2361010   0.7925690   0.1604950   0.2705450   0.0000000   0.0000000   0.0000000   0.0255539  -1.4853400  -0.0090027   0.0000000   0.0000000   0.0000000
 2.5700000  -1.3125900   0.7201800   0.9007400   0.0000000   0.0000000  -0.2377880   0.7926910   0.1530700   0.2704800   0.0000000   0.0000000   0.0000000   0.0231848  -1.4846000  -0.0169523   0.0000000   0.0000000   0.0000000
 2.5750000  -1.3086300   0.7209270   0.9020930   0.0000000   0.0000000  -0.2394820   0.7928010   0.1456490   0.2703760   0.0000000   0.0000000   0.0000000   0.0205657  -1.4836000  -0.0246519   0.0000000   0.0000000   0.0000000
 2.5800000  -1.3046600   0.7216370   0.9034440   0.0000000   0.0000000  -0.2411820   0.7928970   0.1382340   0.2702340   0.0000000   0.0000000   0.0000000   0.0176970  -1.4823600  -0.0321014   0.0000000   0.0000000   0.0000000
 2.5850000  -1.3007000   0.7223090   0.9047950   0.0000000   0.0000000  -0.2428870   0.7929780   0.1308260   0.2700550   0.0000000   0.0000000   0.0000000   0.0148473  -1.4808600  -0.0393010   0.0000000   0.0000000   0.0000000
 2.5900000  -1.2967300   0.7229450   0.9061450   0.0000000   0.0000000  -0.2446000   0.7930450   0.1234260   0.2698410   0.0000000   0.0000000   0.0000000   0.0122477  -1.4791200  -0.0462506   0.0000000   0.0000000   0.0000000
 2.5950000  -1.2927700   0.7235440   0.9074930   0.0000000   0.0000000  -0.2463180   0.7931010   0.1160350   0.2695930   0.0000000   0.0000000   0.0000000   0.0098981  -1.4771200  -0.0529502   0.0000000   0.0000000   0.0000000
 2.6000000  -1.2888000   0.7241050   0.9088400   0.0000000   0.0000000  -0.2480430   0.7931450   0.1086550   0.2693120   0.0000000   0.0000000   0.0000000   0.0077984  -1.4748800  -0.0593998   0.0000000   0.0000000   0.0000000
 2.6050000  -1.2848400   0.7246300   0.9101860   0.0000000   0.0000000  -0.2497740   0.7931790   0.1012870   0.2690000   0.0000000   0.0000000   0.0000000   0.0059488  -1.4723800  -0.0655994   0.0000000   0.0000000   0.0000000
 2.6100000  -1.2808700   0.7251180   0.9115300   0.0000000   0.0000000  -0.2515110   0.7932050   0.0939316   0.2686570   0.0000000   0.0000000   0.0000000   0.0043491  -1.4696400  -0.0715489   0.0000000   0.0000000   0.0000000
 2.6150000  -1.2769000   0.7255700   0.9128730   0.0000000   0.0000000  -0.2532550   0.7932230   0.0865908   0.2682850   0.0000000   0.0000000   0.0000000   0.0029995  -1.4666500  -0.0772485   0.0000000   0.0000000   0.0000000
 2.6200000  -1.2729400   0.7259840   0.9142130   0.0000000   0.0000000  -0.2550040   0.7932350   0.0792656   0.2678850   0.0000000   0.0000000   0.0000000   0.0018999  -1.4634000  -0.0826981   0.0000000   0.0000000   0.0000000
 2.6250000  -1.2689700   0.7263620   0.9155520   0.0000000   0.0000000  -0.2567600   0.7932420   0.0719572   0.2674580   0.0000000   0.0000000   0.0000000   0.0010502  -1.4599100  -0.0878977   0.0000000   0.0000000   0.0000000
 2.6300000  -1.2650000   0.7267040   0.9168880   0.0000000   0.0000000  -0.2585220   0.7932460   0.0646669   0.2670060   0.0000000   0.0000000   0.0000000   0.0004506  -1.4561600  -0.0928473   0.0000000   0.0000000   0.0000000
 2.6350000  -1.2610400   0.7270090   0.9182220   0.0000000   0.0000000  -0.2602910   0.7932470   0.0573960   0.2665300   0.0000000   0.0000000   0.0000000   0.0001009  -1.4521700  -0.0975468   0.0000000   0.0000000   0.0000000
 2.6400000  -1.2570700   0.7272780   0.9195530   0.0000000   0.0000000  -0.2620660   0.7932480   0.0501457   0.2660310   0.0000000   0.0000000   0.0000000  -0.0000000  -1.4479200  -0.1019960   0.0000000   0.0000000   0.0000000
