ts x y z roll pitch yaw vx vy vz wx wy wz ax ay az dwx dwy dwz jx jy jz ddwx ddwy ddwz
1702484090.009336000  -1.5  -0.5  1  0  0  0  6e-07  -6e-07  6e-07  0  0  0  0.000375  -0.000375  0.000375  0  0  0  0  0  0  0  0  0 
1702484090.014334000  -1.5  -0.5  1  0  0  0  5e-06  -5e-06  5e-06  0  0  0  0.0015  -0.0015  0.0015  0  0  0  0  0  0  0  0  0 
1702484090.019333000  -1.5  -0.5  1  0  0  0  1.69e-05  -1.69e-05  1.69e-05  0  0  0  0.003375  -0.003375  0.003375  0  0  0  0  0  0  0  0  0 
1702484090.024333000  -1.5  -0.5  1  0  0  -1e-07  4e-05  -4e-05  4e-05  0  0  0  0.006  -0.006  0.006  0  0  0  0  0  0  0  0  0 
1702484090.029336000  -1.5  -0.5  1  0  0  -3e-07  7.81e-05  -7.81e-05  7.81e-05  0  0  0  0.009375  -0.009375  0.009375  0  0  0  0  0  0  0  0  0 
1702484090.034333000  -1.5  -0.500001  1  0  0  -5e-07  0.000135  -0.000135  0.000135  0  0  0  0.0135  -0.0135  0.0135  0  0  0  0  0  0  0  0  0 
1702484090.039332000  -1.5  -0.500002  1  0  0  -1e-06  0.0002144  -0.0002144  0.0002144  0  0  0  0.018375  -0.018375  0.018375  0  0  0  0  0  0  0  0  0 
1702484090.044346000  -1.5  -0.500003  1  0  0  -1.7e-06  0.00032  -0.00032  0.00032  0  0  0  0.024  -0.024  0.024  0  0  0  0  0  0  0  0  0 
1702484090.049334000  -1.49999  -0.500005  1.00001  0  0  -2.7e-06  0.0004556  -0.0004556  0.0004556  0  0  0  0.030375  -0.030375  0.030375  0  0  0  0  0  0  0  0  0 
1702484090.054334000  -1.49999  -0.500008  1.00001  0  0  -4.2e-06  0.000625  -0.000625  0.000625  0  0  0  0.0375  -0.0375  0.0375  0  0  0  0  0  0  0  0  0 
1702484090.059332000  -1.49999  -0.500011  1.00001  0  0  -6.1e-06  0.0008319  -0.0008319  0.0008319  0  0  0  0.045375  -0.045375  0.045375  0  0  0  0  0  0  0  0  0 
1702484090.064332000  -1.49998  -0.500016  1.00002  0  0  -8.6e-06  0.00108  -0.00108  0.00108  0  0  0  0.054  -0.054  0.054  0  0  0  0  0  0  0  0  0 
1702484090.069332000  -1.49998  -0.500022  1.00002  0  0  -1.19e-05  0.0013731  -0.0013731  0.0013731  0  0  0  0.063375  -0.063375  0.063375  0  0  0  0  0  0  0  0  0 
1702484090.074333000  -1.49997  -0.50003  1.00003  0  0  -1.6e-05  0.001715  -0.001715  0.001715  0  0  0  0.0735  -0.0735  0.0735  0  0  0  0  0  0  0  0  0 
1702484090.079334000  -1.49996  -0.50004  1.00004  0  0  -2.11e-05  0.0021094  -0.0021094  0.0021094  0  0  0  0.084375  -0.084375  0.084375  0  0  0  0  0  0  0  0  0 
1702484090.084340000  -1.49995  -0.500051  1.00005  0  0  -2.73e-05  0.00256  -0.00256  0.00256  0  0  0  0.096  -0.096  0.096  0  0  0  0  0  0  0  0  0 
1702484090.089339000  -1.49993  -0.500065  1.00007  0  0  -3.48e-05  0.0030706  -0.0030706  0.0030706  0  0  0  0.108375  -0.108375  0.108375  0  0  0  0  0  0  0  0  0 
1702484090.094337000  -1.49992  -0.500082  1.00008  0  0  -4.37e-05  0.003645  -0.003645  0.003645  0  0  0  0.1215  -0.1215  0.1215  0  0  0  0  0  0  0  0  0 
1702484090.099335000  -1.4999  -0.500102  1.0001  0  0  -5.43e-05  0.0042869  -0.0042869  0.0042869  0  0  0  0.135375  -0.135375  0.135375  0  0  0  0  0  0  0  0  0 
1702484090.104334000  -1.49988  -0.500125  1.00012  0  0  -6.67e-05  0.005  -0.005  0.005  0  0  0  0.15  -0.15  0.15  0  0  0  0  0  0  0  0  0 
1702484090.109334000  -1.49985  -0.500152  1.00015  0  0  -8.1e-05  0.0057881  -0.0057881  0.0057881  0  0  0  0.165375  -0.165375  0.165375  0  0  0  0  0  0  0  0  0 
1702484090.114334000  -1.49982  -0.500183  1.00018  0  0  -9.76e-05  0.006655  -0.006655  0.006655  0  0  0  0.1815  -0.1815  0.1815  0  0  0  0  0  0  0  0  0 
1702484090.119333000  -1.49978  -0.500219  1.00022  0  0  -0.0001166  0.0076044  -0.0076044  0.0076044  0  0  0  0.198375  -0.198375  0.198375  0  0  0  0  0  0  0  0  0 
1702484090.124333000  -1.49974  -0.500259  1.00026  0  0  -0.0001382  0.00864  -0.00864  0.00864  0  0  0  0.216  -0.215931  0.216  0  0  0  0  0  0  0  0  0 
1702484090.129332000  -1.49969  -0.500305  1.00031  0  0  -0.0001628  0.0097656  -0.0097629  0.0097648  0  0  0  0.234375  -0.233101  0.233814  0  0  0  0  0  0  0  0  0 
1702484090.134333000  -1.49964  -0.500357  1.00036  0  0  -0.0001904  0.010985  -0.0109697  0.0109769  0  0  0  0.2535  -0.24952  0.250893  0  0  0  0  0  0  0  0  0 
1702484090.139332000  -1.49958  -0.500415  1.00042  0  0  -0.0002214  0.0123019  -0.0122568  0.0122725  0  0  0  0.273375  -0.26519  0.267221  0  0  0  0  0  0  0  0  0 
1702484090.144332000  -1.49952  -0.50048  1.00048  0  0  -0.000256  0.01372  -0.0136204  0.0136479  0  0  0  0.294  -0.28011  0.282799  0  0  0  0  0  0  0  0  0 
1702484090.149332000  -1.49945  -0.500551  1.00055  0  0  -0.0002945  0.0152431  -0.0150567  0.0150992  0  0  0  0.315375  -0.29428  0.297627  0  0  0  0  0  0  0  0  0 
1702484090.154332000  -1.49937  -0.50063  1.00063  0  0  -0.000337  0.016875  -0.0165619  0.0166229  0  0  0  0.3375  -0.307699  0.311705  0  0  0  0  0  0  0  0  0 
1702484090.159332000  -1.49928  -0.500717  1.00072  0  0  -0.0003837  0.0186194  -0.0181324  0.018215  0  0  0  0.360375  -0.320369  0.325033  0  0  0  0  0  0  0  0  0 
1702484090.164349000  -1.49918  -0.500812  1.00081  0  0  -0.0004349  0.02048  -0.0197644  0.019872  0  0  0  0.384  -0.332289  0.337612  0  0  0  0  0  0  0  0  0 
1702484090.169332000  -1.49907  -0.500915  1.00092  0  0  -0.0004907  0.0224606  -0.021454  0.0215899  0  0  0  0.408375  -0.343458  0.34944  0  0  0  0  0  0  0  0  0 
1702484090.174333000  -1.49896  -0.501026  1.00103  0  0  -0.0005513  0.024565  -0.0231977  0.0233651  0  0  0  0.4335  -0.353878  0.360518  0  0  0  0  0  0  0  0  0 
1702484090.179331000  -1.49883  -0.501147  1.00115  0  0  -0.0006169  0.0267969  -0.0249916  0.0251938  0  0  0  0.459375  -0.363548  0.370846  0  0  0  0  0  0  0  0  0 
1702484090.184331000  -1.49869  -0.501276  1.00128  0  0  -0.0006876  0.02916  -0.0268319  0.0270723  0  0  0  0.486  -0.372468  0.380424  0  0  0  0  0  0  0  0  0 
1702484090.189348000  -1.49854  -0.501415  1.00142  0  0  -0.0007636  0.0316581  -0.028715  0.0289968  0  0  0  0.513375  -0.380637  0.389252  0  0  0  0  0  0  0  0  0 
1702484090.194351000  -1.49837  -0.501564  1.00157  0  0  -0.000845  0.034295  -0.030637  0.0309636  0  0  0  0.5415  -0.388057  0.397331  0  0  0  0  0  0  0  0  0 
1702484090.199340000  -1.49819  -0.501722  1.00173  0  0  -0.0009319  0.0370742  -0.0325943  0.0329689  0  0  0  0.570152  -0.394727  0.404659  0  0  0  0  0  0  0  0  0 
1702484090.204333000  -1.498  -0.50189  1.0019  0  0  -0.0010245  0.0399954  -0.0345831  0.0350089  0  0  0  0.598209  -0.400647  0.411237  0  0  0  0  0  0  0  0  0 
1702484090.209339000  -1.49779  -0.502068  1.00208  0  0  -0.0011228  0.043055  -0.0365995  0.03708  0  0  0  0.625516  -0.405816  0.417065  0  0  0  0  0  0  0  0  0 
1702484090.214334000  -1.49757  -0.502256  1.00227  0  0  -0.0012269  0.0462493  -0.03864  0.0391783  0  0  0  0.652073  -0.410236  0.422143  0  0  0  0  0  0  0  0  0 
1702484090.219340000  -1.49733  -0.502454  1.00247  0  0  -0.001337  0.0495745  -0.0407006  0.0413002  0  0  0  0.67788  -0.413906  0.426471  0  0  0  0  0  0  0  0  0 
1702484090.224333000  -1.49707  -0.502663  1.00268  0  0  -0.0014531  0.0530268  -0.0427778  0.0434418  0  0  0  0.702937  -0.416825  0.430049  0  0  0  0  0  0  0  0  0 
1702484090.229332000  -1.4968  -0.502882  1.00291  0  0  -0.0015753  0.0566026  -0.0448676  0.0455994  0  0  0  0.727244  -0.418995  0.432878  0  0  0  0  0  0  0  0  0 
1702484090.234335000  -1.49651  -0.503111  1.00314  0  0  -0.0017035  0.060298  -0.0469665  0.0477693  0  0  0  0.750801  -0.420415  0.434956  0  0  0  0  0  0  0  0  0 
1702484090.239342000  -1.4962  -0.503351  1.00339  0  0  -0.001838  0.0641094  -0.0490705  0.0499477  0  0  0  0.773608  -0.421085  0.436284  0  0  0  0  0  0  0  0  0 
1702484090.244333000  -1.49587  -0.503602  1.00364  0  0  -0.0019786  0.0680329  -0.0511761  0.0521309  0  0  0  0.795665  -0.421004  0.436862  0  0  0  0  0  0  0  0  0 
1702484090.249333000  -1.49552  -0.503863  1.00391  0  0  -0.0021255  0.0720648  -0.0532793  0.0543151  0  0  0  0.816972  -0.420174  0.43669  0  0  0  0  0  0  0  0  0 
1702484090.254334000  -1.49514  -0.504135  1.00418  0  0  -0.0022787  0.0762013  -0.0553766  0.0564966  0  0  0  0.837529  -0.418594  0.435768  0  0  0  0  0  0  0  0  0 
1702484090.259335000  -1.49475  -0.504417  1.00447  0  0  -0.002438  0.0804388  -0.057464  0.0586715  0  0  0  0.857336  -0.416264  0.434097  0  0  0  0  0  0  0  0  0 
1702484090.264333000  -1.49434  -0.504709  1.00477  0  0  -0.0026036  0.0847734  -0.059538  0.0608363  0  0  0  0.876393  -0.413183  0.431675  0  0  0  0  0  0  0  0  0 
1702484090.269334000  -1.49391  -0.505012  1.00508  0  0  -0.0027755  0.0892015  -0.0615946  0.062987  0  0  0  0.894699  -0.409353  0.428503  0  0  0  0  0  0  0  0  0 
1702484090.274333000  -1.49345  -0.505325  1.0054  0  0  -0.0029536  0.0937192  -0.0636302  0.0651201  0  0  0  0.912256  -0.404773  0.424581  0  0  0  0  0  0  0  0  0 
1702484090.279333000  -1.49297  -0.505649  1.00573  0  0  -0.003138  0.0983228  -0.0656411  0.0672316  0  0  0  0.929063  -0.399442  0.419909  0  0  0  0  0  0  0  0  0 
1702484090.284331000  -1.49246  -0.505982  1.00607  0  0  -0.0033286  0.103009  -0.0676234  0.0693179  0  0  0  0.94512  -0.393362  0.414487  0  0  0  0  0  0  0  0  0 
1702484090.289342000  -1.49194  -0.506325  1.00642  0  0  -0.0035255  0.107773  -0.0695735  0.0713752  0  0  0  0.960427  -0.386532  0.408316  0  0  0  0  0  0  0  0  0 
1702484090.294332000  -1.49139  -0.506677  1.00679  0  0  -0.0037287  0.112612  -0.0714875  0.0733998  0  0  0  0.974984  -0.378952  0.401394  0  0  0  0  0  0  0  0  0 
1702484090.299333000  -1.49081  -0.50704  1.00716  0  0  -0.003938  0.117521  -0.0733617  0.0753879  0  0  0  0.988791  -0.370621  0.393722  0  0  0  0  0  0  0  0  0 
1702484090.304333000  -1.49021  -0.507411  1.00754  0  0  -0.0041537  0.122498  -0.0751924  0.0773358  0  0  0  1.00185  -0.361541  0.3853  0  0  0  0  0  0  0  0  0 
1702484090.309333000  -1.48959  -0.507791  1.00793  0  0  -0.0043755  0.127539  -0.0769759  0.0792397  0  0  0  1.01416  -0.351711  0.376128  0  0  0  0  0  0  0  0  0 
1702484090.314335000  -1.48894  -0.508181  1.00833  0  0  -0.0046036  0.132639  -0.0787083  0.0810958  0  0  0  1.02571  -0.341131  0.366206  0  0  0  0  0  0  0  0  0 
1702484090.319332000  -1.48826  -0.508578  1.00874  0  0  -0.004838  0.137794  -0.0803859  0.0829005  0  0  0  1.03652  -0.3298  0.355535  0  0  0  0  0  0  0  0  0 
1702484090.324332000  -1.48756  -0.508984  1.00916  0  0  -0.0050786  0.143002  -0.0820051  0.0846499  0  0  0  1.04658  -0.31772  0.344113  0  0  0  0  0  0  0  0  0 
1702484090.329332000  -1.48683  -0.509398  1.00959  0  0  -0.0053255  0.148259  -0.0835619  0.0863403  0  0  0  1.05588  -0.30489  0.331941  0  0  0  0  0  0  0  0  0 
1702484090.334334000  -1.48608  -0.50982  1.01002  0  0  -0.0055787  0.15356  -0.0850527  0.0879681  0  0  0  1.06444  -0.29131  0.319019  0  0  0  0  0  0  0  0  0 
1702484090.339334000  -1.48529  -0.510249  1.01047  0  0  -0.005838  0.158902  -0.0864737  0.0895293  0  0  0  1.07225  -0.276979  0.305347  0  0  0  0  0  0  0  0  0 
1702484090.344333000  -1.48449  -0.510685  1.01092  0  0  -0.0061037  0.164281  -0.0878213  0.0910203  0  0  0  1.0793  -0.261899  0.290925  0  0  0  0  0  0  0  0  0 
1702484090.349333000  -1.48365  -0.511127  1.01138  0  0  -0.0063755  0.169694  -0.0890915  0.0924373  0  0  0  1.08561  -0.246069  0.275754  0  0  0  0  0  0  0  0  0 
1702484090.354333000  -1.48279  -0.511575  1.01184  0  0  -0.0066536  0.175136  -0.0902807  0.0937766  0  0  0  1.09117  -0.229488  0.259832  0  0  0  0  0  0  0  0  0 
1702484090.359333000  -1.4819  -0.51203  1.01232  0  0  -0.006938  0.180604  -0.0913851  0.0950344  0  0  0  1.09597  -0.212158  0.24316  0  0  0  0  0  0  0  0  0 
1702484090.364332000  -1.48098  -0.512489  1.01279  0  0  -0.0072286  0.186095  -0.092402  0.0962069  0  0  0  1.10003  -0.1947  0.225738  0  0  0  0  0  0  0  0  0 
1702484090.369332000  -1.48004  -0.512953  1.01328  0  0  -0.0075255  0.191603  -0.0933334  0.0972907  0  0  0  1.10334  -0.177985  0.207831  0  0  0  0  0  0  0  0  0 
1702484090.374332000  -1.47907  -0.513422  1.01377  0  0  -0.0078286  0.197127  -0.0941831  0.0982864  0  0  0  1.1059  -0.162021  0.190549  0  0  0  0  0  0  0  0  0 
1702484090.379332000  -1.47807  -0.513895  1.01426  0  0  -0.008138  0.202661  -0.0949548  0.0991975  0  0  0  1.1077  -0.146806  0.174018  0  0  0  0  0  0  0  0  0 
1702484090.384332000  -1.47704  -0.514372  1.01476  0  0  -0.0084537  0.208203  -0.0956524  0.100028  0  0  0  1.10876  -0.132342  0.158237  0  0  0  0  0  0  0  0  0 
1702484090.389332000  -1.47599  -0.514851  1.01526  0  0  -0.0087755  0.213747  -0.0962795  0.100781  0  0  0  1.10907  -0.118627  0.143205  0  0  0  0  0  0  0  0  0 
1702484090.394332000  -1.4749  -0.515334  1.01577  0  0  -0.0091036  0.219292  -0.0968399  0.101461  0  0  0  1.10862  -0.105663  0.128924  0  0  0  0  0  0  0  0  0 
1702484090.399341000  -1.47379  -0.51582  1.01628  0  0  -0.009438  0.224832  -0.0973374  0.102072  0  0  0  1.10743  -0.0934485  0.115393  0  0  0  0  0  0  0  0  0 
1702484090.404333000  -1.47265  -0.516308  1.01679  0  0  -0.0097786  0.230365  -0.0977756  0.102616  0  0  0  1.10549  -0.081984  0.102611  0  0  0  0  0  0  0  0  0 
1702484090.409333000  -1.47149  -0.516797  1.0173  0  0  -0.0101255  0.235886  -0.0981585  0.103099  0  0  0  1.10279  -0.0712696  0.0905799  0  0  0  0  0  0  0  0  0 
1702484090.414332000  -1.4703  -0.517289  1.01782  0  0  -0.0104786  0.241392  -0.0984896  0.103523  0  0  0  1.09935  -0.0613051  0.0792986  0  0  0  0  0  0  0  0  0 
1702484090.419332000  -1.46908  -0.517782  1.01834  0  0  -0.010838  0.246878  -0.0987728  0.103893  0  0  0  1.09516  -0.0520907  0.0687673  0  0  0  0  0  0  0  0  0 
1702484090.424341000  -1.46783  -0.518277  1.01886  0  0  -0.0112036  0.252342  -0.0990117  0.104212  0  0  0  1.09022  -0.0436262  0.058986  0  0  0  0  0  0  0  0  0 
1702484090.429351000  -1.46655  -0.518772  1.01938  0  0  -0.0115755  0.257779  -0.0992103  0.104484  0  0  0  1.08452  -0.0359118  0.0499546  0  0  0  0  0  0  0  0  0 
1702484090.434333000  -1.46525  -0.519269  1.0199  0  0  -0.0119536  0.263186  -0.0993721  0.104713  0  0  0  1.07808  -0.0289473  0.0416733  0  0  0  0  0  0  0  0  0 
1702484090.439353000  -1.46392  -0.519766  1.02043  0  0  -0.012338  0.268559  -0.099501  0.104902  0  0  0  1.07089  -0.0227328  0.034142  0  0  0  0  0  0  0  0  0 
1702484090.444351000  -1.46256  -0.520264  1.02095  0  0  -0.0127286  0.273894  -0.0996007  0.105056  0  0  0  1.06294  -0.0172684  0.0273607  0  0  0  0  0  0  0  0  0 
1702484090.449350000  -1.46118  -0.520762  1.02148  0  0  -0.0131255  0.279187  -0.0996749  0.105177  0  0  0  1.05425  -0.0125539  0.0213293  0  0  0  0  0  0  0  0  0 
1702484090.454333000  -1.45977  -0.52126  1.022  0  0  -0.0135286  0.284435  -0.0997275  0.10527  0  0  0  1.04481  -0.0085895  0.016048  0  0  0  0  0  0  0  0  0 
1702484090.459355000  -1.45834  -0.521759  1.02253  0  0  -0.013938  0.289634  -0.0997621  0.105339  0  0  0  1.03461  -0.005375  0.0115167  0  0  0  0  0  0  0  0  0 
1702484090.464333000  -1.45688  -0.522258  1.02306  0  0  -0.0143536  0.29478  -0.0997825  0.105387  0  0  0  1.02367  -0.0029106  0.0077354  0  0  0  0  0  0  0  0  0 
1702484090.469361000  -1.45539  -0.522757  1.02358  0  0  -0.0147755  0.299869  -0.0997924  0.105417  0  0  0  1.01198  -0.0011961  0.004704  0  0  0  0  0  0  0  0  0 
1702484090.474336000  -1.45388  -0.523256  1.02411  0  0  -0.0152036  0.304898  -0.0997957  0.105435  0  0  0  0.999535  -0.0002316  0.0024227  0  0  0  0  0  0  0  0  0 
1702484090.479362000  -1.45234  -0.523755  1.02464  0  0  -0.015638  0.309863  -0.099796  0.105443  0  0  0  0.986342  -0  0.0008914  0  0  0  0  0  0  0  0  0 
1702484090.484333000  -1.45078  -0.524254  1.02516  0  0  -0.0160786  0.314761  -0.099796  0.105445  0  0  0  0.972399  -0  0.0001101  0  0  0  0  0  0  0  0  0 
1702484090.489352000  -1.44919  -0.524753  1.02569  0  0  -0.0165255  0.319586  -0.099796  0.105445  0  0  0  0.957706  -0  -0  0  0  0  0  0  0  0  0  0 
1702484090.494335000  -1.44758  -0.525252  1.02622  0  0  -0.0169786  0.324336  -0.099796  0.105445  0  0  0  0.942263  -0  -0  0  0  0  0  0  0  0  0  0 
1702484090.499352000  -1.44595  -0.525751  1.02675  0  0  -0.017438  0.329007  -0.099796  0.105445  0  0  0  0.92607  -0  -0  0  0  0  0  0  0  0  0  0 
1702484090.504333000  -1.44429  -0.52625  1.02727  0  0  -0.0179036  0.333596  -0.099796  0.105445  0  0  0  0.909127  -0  -0  0  0  0  0  0  0  0  0  0 
1702484090.509332000  -1.44261  -0.526749  1.0278  0  0  -0.0183755  0.338097  -0.099796  0.105445  0  0  0  0.891434  -0  -0  0  0  0  0  0  0  0  0  0 
1702484090.514334000  -1.44091  -0.527248  1.02833  0  0  -0.0188536  0.342509  -0.099796  0.105445  0  0  0  0.872991  -0  -0  0  0  0  0  0  0  0  0  0 
1702484090.519353000  -1.43919  -0.527747  1.02885  0  0  -0.019338  0.346826  -0.099796  0.105445  0  0  0  0.853798  -0  -0  0  0  0  0  0  0  0  0  0 
1702484090.524333000  -1.43744  -0.528246  1.02938  0  0  -0.0198286  0.351046  -0.099796  0.105445  0  0  0  0.833855  -0  -0  0  0  0  0  0  0  0  0  0 
1702484090.529333000  -1.43568  -0.528745  1.02991  0  0  -0.0203255  0.355163  -0.099796  0.105445  0  0  0  0.813162  -0  -0  0  0  0  0  0  0  0  0  0 
1702484090.534335000  -1.43389  -0.529244  1.03044  0  0  -0.0208286  0.359176  -0.099796  0.105445  0  0  0  0.791719  -0  -0  0  0  0  0  0  0  0  0  0 
1702484090.539335000  -1.43209  -0.529743  1.03096  0  0  -0.021338  0.363079  -0.099796  0.105445  0  0  0  0.769526  -0  -0  0  0  0  0  0  0  0  0  0 
1702484090.544339000  -1.43026  -0.530242  1.03149  0  0  -0.0218536  0.36687  -0.099796  0.105445  0  0  0  0.746583  -0  -0  0  0  0  0  0  0  0  0  0 
1702484090.549361000  -1.42842  -0.530741  1.03202  0  0  -0.0223755  0.370544  -0.099796  0.105445  0  0  0  0.72289  -0  -0  0  0  0  0  0  0  0  0  0 
1702484090.554337000  -1.42656  -0.53124  1.03255  0  0  -0.0229036  0.374098  -0.099796  0.105445  0  0  0  0.698447  -0  -0  0  0  0  0  0  0  0  0  0 
1702484090.559335000  -1.42468  -0.531739  1.03307  0  0  -0.023438  0.377527  -0.099796  0.105445  0  0  0  0.673254  -0  -0  0  0  0  0  0  0  0  0  0 
1702484090.564355000  -1.42278  -0.532238  1.0336  0  0  -0.0239786  0.380829  -0.099796  0.105445  0  0  0  0.647311  -0  -0  0  0  0  0  0  0  0  0  0 
1702484090.569362000  -1.42087  -0.532737  1.03413  0  0  -0.0245255  0.383999  -0.099796  0.105445  0  0  0  0.620618  -0  -0  0  0  0  0  0  0  0  0  0 
1702484090.574334000  -1.41894  -0.533236  1.03465  0  0  -0.0250786  0.387034  -0.099796  0.105445  0  0  0  0.593175  -0  -0  0  0  0  0  0  0  0  0  0 
1702484090.579348000  -1.417  -0.533735  1.03518  0  0  -0.025638  0.38993  -0.099796  0.105445  0  0  0  0.564982  -0  -0  0  0  0  0  0  0  0  0  0 
1702484090.584349000  -1.41504  -0.534234  1.03571  0  0  -0.0262036  0.392683  -0.099796  0.105445  0  0  0  0.536342  -0  -0  0  0  0  0  0  0  0  0  0 
1702484090.589355000  -1.41307  -0.534733  1.03624  0  0  -0.0267755  0.395294  -0.099796  0.105445  0  0  0  0.508353  -0  -0  0  0  0  0  0  0  0  0  0 
1702484090.594333000  -1.41109  -0.535231  1.03676  0  0  -0.0273536  0.397767  -0.099796  0.105445  0  0  0  0.481114  -0  -0  0  0  0  0  0  0  0  0  0 
1702484090.599331000  -1.4091  -0.53573  1.03729  0  0  -0.027938  0.400107  -0.099796  0.105445  0  0  0  0.454625  -0  -0  0  0  0  0  0  0  0  0  0 
1702484090.604334000  -1.40709  -0.536229  1.03782  0  0  -0.0285286  0.402315  -0.099796  0.105445  0  0  0  0.428886  -0  -0  0  0  0  0  0  0  0  0  0 
1702484090.609333000  -1.40507  -0.536728  1.03834  0  0  -0.0291255  0.404397  -0.099796  0.105445  0  0  0  0.403897  -0  -0  0  0  0  0  0  0  0  0  0 
1702484090.614331000  -1.40305  -0.537227  1.03887  0  0  -0.0297286  0.406355  -0.099796  0.105445  0  0  0  0.379658  -0  -0  0  0  0  0  0  0  0  0  0 
1702484090.619331000  -1.40101  -0.537726  1.0394  0  0  -0.030338  0.408194  -0.099796  0.105445  0  0  0  0.356169  -0  -0  0  0  0  0  0  0  0  0  0 
1702484090.624333000  -1.39896  -0.538225  1.03993  0  0  -0.0309536  0.409918  -0.099796  0.105445  0  0  0  0.33343  -0  -0  0  0  0  0  0  0  0  0  0 
1702484090.629332000  -1.39691  -0.538724  1.04045  0  0  -0.0315755  0.41153  -0.099796  0.105445  0  0  0  0.311442  -0  -0  0  0  0  0  0  0  0  0  0 
1702484090.634332000  -1.39485  -0.539223  1.04098  0  0  -0.0322036  0.413034  -0.099796  0.105445  0  0  0  0.290203  -0  -0  0  0  0  0  0  0  0  0  0 
1702484090.639333000  -1.39278  -0.539722  1.04151  0  0  -0.032838  0.414433  -0.099796  0.105445  0  0  0  0.269714  -0  -0  0  0  0  0  0  0  0  0  0 
1702484090.644332000  -1.3907  -0.540221  1.04204  0  0  -0.0334786  0.415732  -0.099796  0.105445  0  0  0  0.249975  -0  -0  0  0  0  0  0  0  0  0  0 
1702484090.649332000  -1.38862  -0.54072  1.04256  0  0  -0.0341255  0.416934  -0.099796  0.105445  0  0  0  0.230986  -0  -0  0  0  0  0  0  0  0  0  0 
1702484090.654333000  -1.38654  -0.541219  1.04309  0  0  -0.0347786  0.418043  -0.099796  0.105445  0  0  0  0.212747  -0  -0  0  0  0  0  0  0  0  0  0 
1702484090.659332000  -1.38444  -0.541718  1.04362  0  0  -0.035438  0.419063  -0.099796  0.105445  0  0  0  0.195258  -0  -0  0  0  0  0  0  0  0  0  0 
1702484090.664332000  -1.38235  -0.542217  1.04414  0  0  -0.0361036  0.419997  -0.099796  0.105445  0  0  0  0.178519  -0  -0  0  0  0  0  0  0  0  0  0 
1702484090.669333000  -1.38024  -0.542716  1.04467  0  0  -0.0367755  0.420849  -0.099796  0.105445  0  0  0  0.16253  -0  -0  0  0  0  0  0  0  0  0  0 
1702484090.674336000  -1.37814  -0.543215  1.0452  0  0  -0.0374536  0.421624  -0.099796  0.105445  0  0  0  0.147291  -0  -0  0  0  0  0  0  0  0  0  0 
1702484090.679333000  -1.37603  -0.543714  1.04573  0  0  -0.038138  0.422324  -0.099796  0.105445  0  0  0  0.132802  -0  -0  0  0  0  0  0  0  0  0  0 
1702484090.684332000  -1.37391  -0.544213  1.04625  0  0  -0.0388286  0.422953  -0.099796  0.105445  0  0  0  0.119063  -0  -0  0  0  0  0  0  0  0  0  0 
1702484090.689333000  -1.3718  -0.544712  1.04678  0  0  -0.0395255  0.423516  -0.099796  0.105445  0  0  0  0.106074  -0  -0  0  0  0  0  0  0  0  0  0 
1702484090.694342000  -1.36968  -0.545211  1.04731  0  0  -0.0402286  0.424015  -0.099796  0.105445  0  0  0  0.0938353  -0  -0  0  0  0  0  0  0  0  0  0 
1702484090.699331000  -1.36756  -0.54571  1.04783  0  0  -0.040938  0.424455  -0.099796  0.105445  0  0  0  0.0823464  -0  -0  0  0  0  0  0  0  0  0  0 
1702484090.704352000  -1.36543  -0.546209  1.04836  0  0  -0.0416536  0.42484  -0.099796  0.105445  0  0  0  0.0716075  -0  -0  0  0  0  0  0  0  0  0  0 
1702484090.709341000  -1.36331  -0.546708  1.04889  0  0  -0.0423755  0.425172  -0.099796  0.105445  0  0  0  0.0616185  -0  -0  0  0  0  0  0  0  0  0  0 
1702484090.714334000  -1.36118  -0.547207  1.04942  0  0  -0.0431036  0.425457  -0.099796  0.105445  0  0  0  0.0523796  -0  -0  0  0  0  0  0  0  0  0  0 
1702484090.719331000  -1.35905  -0.547706  1.04994  0  0  -0.043838  0.425697  -0.099796  0.105445  0  0  0  0.0438906  -0  -0  0  0  0  0  0  0  0  0  0 
1702484090.724332000  -1.35693  -0.548205  1.05047  0  0  -0.0445786  0.425897  -0.099796  0.105445  0  0  0  0.0361517  -0  -0  0  0  0  0  0  0  0  0  0 
1702484090.729331000  -1.3548  -0.548704  1.051  0  0  -0.0453255  0.42606  -0.099796  0.105445  0  0  0  0.0291628  -0  -0  0  0  0  0  0  0  0  0  0 
1702484090.734331000  -1.35266  -0.549203  1.05153  0  0  -0.0460786  0.42619  -0.099796  0.105445  0  0  0  0.0229238  -0  -0  0  0  0  0  0  0  0  0  0 
1702484090.739332000  -1.35053  -0.549702  1.05205  0  0  -0.046838  0.426291  -0.099796  0.105445  0  0  0  0.0174349  -0  -0  0  0  0  0  0  0  0  0  0 
1702484090.744331000  -1.3484  -0.550201  1.05258  0  0  -0.0476036  0.426366  -0.099796  0.105445  0  0  0  0.012696  -0  -0  0  0  0  0  0  0  0  0  0 
1702484090.749331000  -1.34627  -0.5507  1.05311  0  0  -0.0483755  0.426419  -0.099796  0.105445  0  0  0  0.008707  -0  -0  0  0  0  0  0  0  0  0  0 
1702484090.754331000  -1.34414  -0.551199  1.05363  0  0  -0.0491536  0.426454  -0.099796  0.105445  0  0  0  0.0054681  -0  -0  0  0  0  0  0  0  0  0  0 
1702484090.759332000  -1.34201  -0.551698  1.05416  0  0  -0.049938  0.426475  -0.099796  0.105445  0  0  0  0.0029791  -0  -0  0  0  0  0  0  0  0  0  0 
1702484090.764339000  -1.33987  -0.552197  1.05469  0  0  -0.0507286  0.426485  -0.099796  0.105445  0  0  0  0.0012402  -0  -0  0  0  0  0  0  0  0  0  0 
1702484090.769340000  -1.33774  -0.552696  1.05522  0  0  -0.0515255  0.426489  -0.099796  0.105445  0  0  0  0.0002513  -0  -0  0  0  0  0  0  0  0  0  0 
1702484090.774339000  -1.33561  -0.553195  1.05574  0  0  -0.0523286  0.426489  -0.099796  0.105445  0  0  0  0  -0  -0  0  0  0  0  0  0  0  0  0 
1702484090.779339000  -1.33348  -0.553694  1.05627  0  0  -0.053138  0.426489  -0.099796  0.105445  0  0  0  0  -0  -0  0  0  0  0  0  0  0  0  0 
1702484090.784339000  -1.33134  -0.554193  1.0568  0  0  -0.0539536  0.426489  -0.099796  0.105445  0  0  0  0  -0  -0  0  0  0  0  0  0  0  0  0 
1702484090.789339000  -1.32921  -0.554692  1.05732  0  0  -0.0547755  0.426489  -0.099796  0.105445  0  0  0  0  -0  -0  0  0  0  0  0  0  0  0  0 
1702484090.794334000  -1.32708  -0.555191  1.05785  0  0  -0.0556036  0.426489  -0.099796  0.105445  0  0  0  0  -0  -0  0  0  0  0  0  0  0  0  0 
1702484090.799342000  -1.32495  -0.55569  1.05838  0  0  -0.056438  0.426489  -0.099796  0.105445  0  0  0  0  -0  -0  0  0  0  0  0  0  0  0  0 
1702484090.804342000  -1.32281  -0.556189  1.05891  0  0  -0.0572786  0.426489  -0.099796  0.105445  0  0  0  0  -0  -0  0  0  0  0  0  0  0  0  0 
1702484090.809381000  -1.32068  -0.556688  1.05943  0  0  -0.0581255  0.426489  -0.099796  0.105445  0  0  0  0  -0  -0  0  0  0  0  0  0  0  0  0 
1702484090.814335000  -1.31855  -0.557187  1.05996  0  0  -0.0589786  0.426489  -0.099796  0.105445  0  0  0  0  -0  -0  0  0  0  0  0  0  0  0  0 
1702484090.819333000  -1.31642  -0.557686  1.06049  0  0  -0.059838  0.426489  -0.099796  0.105445  0  0  0  0  -0  -0  0  0  0  0  0  0  0  0  0 
1702484090.824346000  -1.31428  -0.558185  1.06102  0  0  -0.0607036  0.426489  -0.099796  0.105445  0  0  0  0  -0  -0  0  0  0  0  0  0  0  0  0 
1702484090.829337000  -1.31215  -0.558684  1.06154  0  0  -0.0615755  0.426489  -0.099796  0.105445  0  0  0  0  -0  -0  0  0  0  0  0  0  0  0  0 
1702484090.834334000  -1.31002  -0.559183  1.06207  0  0  -0.0624536  0.426489  -0.099796  0.105445  0  0  0  0  -0  -0  0  0  0  0  0  0  0  0  0 
1702484090.839450000  -1.30789  -0.559682  1.0626  0  0  -0.063338  0.426489  -0.099796  0.105445  0  0  0  0  -0  -0  0  0  0  0  0  0  0  0  0 
1702484090.844336000  -1.30575  -0.56018  1.06312  0  0  -0.0642286  0.426489  -0.099796  0.105445  0  0  0  0  -0  -0  0  0  0  0  0  0  0  0  0 
1702484090.849339000  -1.30362  -0.560679  1.06365  0  0  -0.0651255  0.426489  -0.099796  0.105445  0  0  0  0  -0  -0  0  0  0  0  0  0  0  0  0 
1702484090.854350000  -1.30149  -0.561178  1.06418  0  0  -0.0660286  0.426489  -0.099796  0.105445  0  0  0  0  -0  -0  0  0  0  0  0  0  0  0  0 
1702484090.859336000  -1.29936  -0.561677  1.06471  0  0  -0.066938  0.426489  -0.099796  0.105445  0  0  0  0  -0  -0  0  0  0  0  0  0  0  0  0 
1702484090.864351000  -1.29722  -0.562176  1.06523  0  0  -0.0678536  0.426489  -0.099796  0.105445  0  0  0  0  -0  -0  0  0  0  0  0  0  0  0  0 
1702484090.869346000  -1.29509  -0.562675  1.06576  0  0  -0.0687755  0.426489  -0.099796  0.105445  0  0  0  0  -0  -0  0  0  0  0  0  0  0  0  0 
1702484090.874343000  -1.29296  -0.563174  1.06629  0  0  -0.0697036  0.426489  -0.099796  0.105445  0  0  0  0  -0  -0  0  0  0  0  0  0  0  0  0 
1702484090.879355000  -1.29083  -0.563673  1.06681  0  0  -0.070638  0.426489  -0.099796  0.105445  0  0  0  0  -0  -0  0  0  0  0  0  0  0  0  0 
1702484090.884353000  -1.28869  -0.564172  1.06734  0  0  -0.0715786  0.426489  -0.099796  0.105445  0  0  0  0  -0  -0  0  0  0  0  0  0  0  0  0 
1702484090.889333000  -1.28656  -0.564671  1.06787  0  0  -0.0725255  0.426489  -0.099796  0.105445  0  0  0  0  -0  -0  0  0  0  0  0  0  0  0  0 
1702484090.894335000  -1.28443  -0.56517  1.0684  0  0  -0.0734786  0.426489  -0.099796  0.105445  0  0  0  0  -0  -0  0  0  0  0  0  0  0  0  0 
1702484090.899333000  -1.2823  -0.565669  1.06892  0  0  -0.074438  0.426489  -0.099796  0.105445  0  0  0  0  -0  -0  0  0  0  0  0  0  0  0  0 
1702484090.904335000  -1.28016  -0.566168  1.06945  0  0  -0.0754036  0.426489  -0.099796  0.105445  0  0  0  0  -0  -0  0  0  0  0  0  0  0  0  0 
1702484090.909335000  -1.27803  -0.566667  1.06998  0  0  -0.0763755  0.426489  -0.099796  0.105445  0  0  0  0  -0  -0  0  0  0  0  0  0  0  0  0 
1702484090.914342000  -1.2759  -0.567166  1.07051  0  0  -0.0773536  0.426489  -0.099796  0.105445  0  0  0  0  -0  -0  0  0  0  0  0  0  0  0  0 
1702484090.919340000  -1.27377  -0.567665  1.07103  0  0  -0.078338  0.426489  -0.099796  0.105445  0  0  0  0  -0  -0  0  0  0  0  0  0  0  0  0 
1702484090.924335000  -1.27164  -0.568164  1.07156  0  0  -0.0793286  0.426489  -0.099796  0.105445  0  0  0  0  -0  -0  0  0  0  0  0  0  0  0  0 
1702484090.929353000  -1.2695  -0.568663  1.07209  0  0  -0.0803255  0.426489  -0.099796  0.105445  0  0  0  0  -0  -0  0  0  0  0  0  0  0  0  0 
1702484090.934335000  -1.26737  -0.569162  1.07261  0  0  -0.0813286  0.426489  -0.099796  0.105445  0  0  0  0  -0  -0  0  0  0  0  0  0  0  0  0 
1702484090.939332000  -1.26524  -0.569661  1.07314  0  0  -0.082338  0.426489  -0.099796  0.105445  0  0  0  0  -0  -0  0  0  0  0  0  0  0  0  0 
1702484090.944342000  -1.26311  -0.57016  1.07367  0  0  -0.0833536  0.426489  -0.099796  0.105445  0  0  0  0  -0  -0  0  0  0  0  0  0  0  0  0 
1702484090.949342000  -1.26097  -0.570659  1.0742  0  0  -0.0843755  0.426489  -0.099796  0.105445  0  0  0  0  -0  -0  0  0  0  0  0  0  0  0  0 
1702484090.954333000  -1.25884  -0.571158  1.07472  0  0  -0.0854036  0.426489  -0.099796  0.105445  0  0  0  0  -0  -0  0  0  0  0  0  0  0  0  0 
1702484090.959342000  -1.25671  -0.571657  1.07525  0  0  -0.086438  0.426489  -0.099796  0.105445  0  0  0  0  -0  -0  0  0  0  0  0  0  0  0  0 
1702484090.964345000  -1.25458  -0.572156  1.07578  0  0  -0.0874786  0.426489  -0.099796  0.105445  0  0  0  0  -0  -0  0  0  0  0  0  0  0  0  0 
1702484090.969338000  -1.25244  -0.572655  1.0763  0  0  -0.0885255  0.426489  -0.099796  0.105445  0  0  0  0  -0  -0  0  0  0  0  0  0  0  0  0 
1702484090.974334000  -1.25031  -0.573154  1.07683  0  0  -0.0895786  0.426489  -0.099796  0.105445  0  0  0  0  -0  -0  0  0  0  0  0  0  0  0  0 
1702484090.979353000  -1.24818  -0.573653  1.07736  0  0  -0.090638  0.426489  -0.099796  0.105445  0  0  0  0  -0  -0  0  0  0  0  0  0  0  0  0 
1702484090.984331000  -1.24605  -0.574152  1.07789  0  0  -0.0917036  0.426489  -0.099796  0.105445  0  0  0  0  -0  -0  0  0  0  0  0  0  0  0  0 
1702484090.989348000  -1.24391  -0.574651  1.07841  0  0  -0.0927755  0.426489  -0.099796  0.105445  0  0  0  0  -0  -0  0  0  0  0  0  0  0  0  0 
1702484090.994334000  -1.24178  -0.57515  1.07894  0  0  -0.0938536  0.426489  -0.099796  0.105445  0  0  0  0  -0  -0  0  0  0  0  0  0  0  0  0 
1702484090.999333000  -1.23965  -0.575649  1.07947  0  0  -0.094938  0.426489  -0.099796  0.105445  0  0  0  0  -0  -0  0  0  0  0  0  0  0  0  0 
1702484091.004334000  -1.23752  -0.576148  1.08  0  0  -0.0960286  0.426489  -0.099796  0.105445  0  0  0  0  -0  -0  0  0  0  0  0  0  0  0  0 
1702484091.009342000  -1.23538  -0.576647  1.08052  0  0  -0.0971255  0.426489  -0.099796  0.105445  0  0  0  0  -0  -0  0  0  0  0  0  0  0  0  0 
1702484091.014332000  -1.23325  -0.577146  1.08105  0  0  -0.0982286  0.426489  -0.099796  0.105445  0  0  0  0  -0  -0  0  0  0  0  0  0  0  0  0 
1702484091.019355000  -1.23112  -0.577645  1.08158  0  0  -0.099338  0.426489  -0.099796  0.105445  0  0  0  0  -0  -0  0  0  0  0  0  0  0  0  0 
1702484091.024332000  -1.22899  -0.578144  1.0821  0  0  -0.100454  0.426489  -0.099796  0.105445  0  0  0  0  -0  -0  0  0  0  0  0  0  0  0  0 
1702484091.029336000  -1.22685  -0.578643  1.08263  0  0  -0.101576  0.426489  -0.099796  0.105445  0  0  0  0  -0  -0  0  0  0  0  0  0  0  0  0 
1702484091.034351000  -1.22472  -0.579142  1.08316  0  0  -0.102704  0.426489  -0.099796  0.105445  0  0  0  0  -0  -0  0  0  0  0  0  0  0  0  0 
1702484091.039334000  -1.22259  -0.579641  1.08369  0  0  -0.103838  0.426489  -0.099796  0.105445  0  0  0  0  -0  -0  0  0  0  0  0  0  0  0  0 
1702484091.044332000  -1.22046  -0.58014  1.08421  0  0  -0.104979  0.426489  -0.099796  0.105445  0  0  0  0  -0  -0  0  0  0  0  0  0  0  0  0 
1702484091.049332000  -1.21832  -0.580639  1.08474  0  0  -0.106126  0.426489  -0.099796  0.105445  0  0  0  0  -0  -0  0  0  0  0  0  0  0  0  0 
1702484091.054333000  -1.21619  -0.581138  1.08527  0  0  -0.107279  0.426489  -0.099796  0.105445  0  0  0  0  -0  -0  0  0  0  0  0  0  0  0  0 
1702484091.059334000  -1.21406  -0.581637  1.0858  0  0  -0.108438  0.426489  -0.099796  0.105445  0  0  0  0  -0  -0  0  0  0  0  0  0  0  0  0 
1702484091.064342000  -1.21193  -0.582136  1.08632  0  0  -0.109604  0.426489  -0.099796  0.105445  0  0  0  0  -0  -0  0  0  0  0  0  0  0  0  0 
1702484091.069333000  -1.20979  -0.582635  1.08685  0  0  -0.110776  0.426489  -0.099796  0.105445  0  0  0  0  -0  -0  0  0  0  0  0  0  0  0  0 
1702484091.074334000  -1.20766  -0.583134  1.08738  0  0  -0.111954  0.426489  -0.099796  0.105445  0  0  0  0  -0  -0  0  0  0  0  0  0  0  0  0 
1702484091.079332000  -1.20553  -0.583633  1.0879  0  0  -0.113138  0.426489  -0.099796  0.105445  0  0  0  0  -0  -0  0  0  0  0  0  0  0  0  0 
1702484091.084333000  -1.2034  -0.584132  1.08843  0  0  -0.114329  0.426489  -0.099796  0.105445  0  0  0  0  -0  -0  0  0  0  0  0  0  0  0  0 
1702484091.089332000  -1.20126  -0.584631  1.08896  0  0  -0.115526  0.426489  -0.099796  0.105445  0  0  0  0  -0  -0  0  0  0  0  0  0  0  0  0 
1702484091.094335000  -1.19913  -0.585129  1.08949  0  0  -0.116729  0.426489  -0.099796  0.105445  0  0  0  0  -0  -0  0  0  0  0  0  0  0  0  0 
1702484091.099360000  -1.197  -0.585628  1.09001  0  0  -0.117938  0.426489  -0.099796  0.105445  0  0  0  0  -0  -0  0  0  0  0  0  0  0  0  0 
1702484091.104355000  -1.19487  -0.586127  1.09054  0  0  -0.119154  0.426489  -0.099796  0.105445  0  0  0  0  -0  -0  0  0  0  0  0  0  0  0  0 
1702484091.109342000  -1.19273  -0.586626  1.09107  0  0  -0.120376  0.426489  -0.099796  0.105445  0  0  0  0  -0  -0  0  0  0  0  0  0  0  0  0 
1702484091.114336000  -1.1906  -0.587125  1.09159  0  0  -0.121604  0.426489  -0.099796  0.105445  0  0  0  0  -0  -0  0  0  0  0  0  0  0  0  0 
1702484091.119332000  -1.18847  -0.587624  1.09212  0  0  -0.122838  0.426489  -0.099796  0.105445  0  0  0  0  -0  -0  0  0  0  0  0  0  0  0  0 
1702484091.124334000  -1.18634  -0.588123  1.09265  0  0  -0.124079  0.426489  -0.099796  0.105445  0  0  0  0  -0  -0  0  0  0  0  0  0  0  0  0 
1702484091.129331000  -1.1842  -0.588622  1.09318  0  0  -0.125326  0.426489  -0.099796  0.105445  0  0  0  0  -0  -0  0  0  0  0  0  0  0  0  0 
1702484091.134331000  -1.18207  -0.589121  1.0937  0  0  -0.126579  0.426489  -0.099796  0.105445  0  0  0  0  -0  -0  0  0  0  0  0  0  0  0  0 
1702484091.139333000  -1.17994  -0.58962  1.09423  0  0  -0.127838  0.426489  -0.099796  0.105445  0  0  0  0  -0  -0  0  0  0  0  0  0  0  0  0 
1702484091.144331000  -1.17781  -0.590119  1.09476  0  0  -0.129104  0.426489  -0.099796  0.105445  0  0  0  0  -0  -0  0  0  0  0  0  0  0  0  0 
1702484091.149331000  -1.17568  -0.590618  1.09529  0  0  -0.130376  0.426489  -0.099796  0.105445  0  0  0  0  -0  -0  0  0  0  0  0  0  0  0  0 
1702484091.154335000  -1.17354  -0.591117  1.09581  0  0  -0.131654  0.426489  -0.099796  0.105445  0  0  0  0  -0  -0  0  0  0  0  0  0  0  0  0 
1702484091.159341000  -1.17141  -0.591616  1.09634  0  0  -0.132938  0.426489  -0.099796  0.105445  0  0  0  0  -0  -0  0  0  0  0  0  0  0  0  0 
1702484091.164332000  -1.16928  -0.592115  1.09687  0  0  -0.134229  0.426489  -0.099796  0.105445  0  0  0  0  -0  -0  0  0  0  0  0  0  0  0  0 
1702484091.169331000  -1.16715  -0.592614  1.09739  0  0  -0.135526  0.426489  -0.099796  0.105445  0  0  0  0  -0  -0  0  0  0  0  0  0  0  0  0 
1702484091.174333000  -1.16501  -0.593113  1.09792  0  0  -0.136829  0.426489  -0.099796  0.105445  0  0  0  0  -0  -0  0  0  0  0  0  0  0  0  0 
1702484091.179331000  -1.16288  -0.593612  1.09845  0  0  -0.138138  0.426489  -0.099796  0.105445  0  0  0  0  -0  -0  0  0  0  0  0  0  0  0  0 
1702484091.184333000  -1.16075  -0.594111  1.09898  0  0  -0.139454  0.426489  -0.099796  0.105445  0  0  0  0  -0  -0  0  0  0  0  0  0  0  0  0 
1702484091.189349000  -1.15862  -0.59461  1.0995  0  0  -0.140776  0.426489  -0.099796  0.105445  0  0  0  0  -0  -0  0  0  0  0  0  0  0  0  0 
1702484091.194333000  -1.15648  -0.595109  1.10003  0  0  -0.142104  0.426489  -0.099796  0.105445  0  0  0  0  -0  -0  0  0  0  0  0  0  0  0  0 
1702484091.199332000  -1.15435  -0.595608  1.10056  0  0  -0.143438  0.426489  -0.099796  0.105445  0  0  0  0  -0  -0  0  0  0  0  0  0  0  0  0 
1702484091.204334000  -1.15222  -0.596107  1.10108  0  0  -0.144779  0.426489  -0.099796  0.105445  0  0  0  0  -0  -0  0  0  0  0  0  0  0  0  0 
1702484091.209342000  -1.15009  -0.596606  1.10161  0  0  -0.146126  0.426489  -0.099796  0.105445  0  0  0  0  -0  -0  0  0  0  0  0  0  0  0  0 
1702484091.214333000  -1.14795  -0.597105  1.10214  0  0  -0.147479  0.426489  -0.099796  0.105445  0  0  0  0  -0  -0  0  0  0  0  0  0  0  0  0 
1702484091.219331000  -1.14582  -0.597604  1.10267  0  0  -0.148838  0.426489  -0.099796  0.105445  0  0  0  0  -0  -0  0  0  0  0  0  0  0  0  0 
1702484091.224336000  -1.14369  -0.598103  1.10319  0  0  -0.150204  0.426489  -0.099796  0.105445  0  0  0  0  -0  -0  0  0  0  0  0  0  0  0  0 
1702484091.229334000  -1.14156  -0.598602  1.10372  0  0  -0.151576  0.426489  -0.099796  0.105445  0  0  0  0  -0  -0  0  0  0  0  0  0  0  0  0 
1702484091.234337000  -1.13942  -0.599101  1.10425  0  0  -0.152954  0.426489  -0.099796  0.105445  0  0  0  0  -0  -0  0  0  0  0  0  0  0  0  0 
1702484091.239348000  -1.13729  -0.5996  1.10478  0  0  -0.154338  0.426489  -0.099796  0.105445  0  0  0  0  -0  -0  0  0  0  0  0  0  0  0  0 
1702484091.244333000  -1.13516  -0.600099  1.1053  0  0  -0.155729  0.426489  -0.099796  0.105445  0  0  0  0  -0  -0  0  0  0  0  0  0  0  0  0 
1702484091.249343000  -1.13303  -0.600598  1.10583  0  0  -0.157126  0.426489  -0.099796  0.105445  0  0  0  0  -0  -0  0  0  0  0  0  0  0  0  0 
1702484091.254336000  -1.13089  -0.601097  1.10636  0  0  -0.158529  0.426489  -0.099796  0.105445  0  0  0  0  -0  -0  0  0  0  0  0  0  0  0  0 
1702484091.259332000  -1.12876  -0.601596  1.10688  0  0  -0.159938  0.426489  -0.099796  0.105445  0  0  0  0  -0  -0  0  0  0  0  0  0  0  0  0 
1702484091.264337000  -1.12663  -0.602095  1.10741  0  0  -0.161354  0.426489  -0.099796  0.105445  0  0  0  0  -0  -0  0  0  0  0  0  0  0  0  0 
1702484091.269333000  -1.1245  -0.602594  1.10794  0  0  -0.162776  0.426489  -0.099796  0.105445  0  0  0  0  -0  -0  0  0  0  0  0  0  0  0  0 
1702484091.274334000  -1.12236  -0.603093  1.10847  0  0  -0.164204  0.426489  -0.099796  0.105445  0  0  0  0  -0  -0  0  0  0  0  0  0  0  0  0 
1702484091.279360000  -1.12023  -0.603592  1.10899  0  0  -0.165638  0.426489  -0.099796  0.105445  0  0  0  0  -0  -0  0  0  0  0  0  0  0  0  0 
1702484091.284332000  -1.1181  -0.604091  1.10952  0  0  -0.167079  0.426489  -0.099796  0.105445  0  0  0  0  -0  -0  0  0  0  0  0  0  0  0  0 
1702484091.289334000  -1.11597  -0.60459  1.11005  0  0  -0.168526  0.426489  -0.099796  0.105445  0  0  0  0  -0  -0  0  0  0  0  0  0  0  0  0 
1702484091.294335000  -1.11383  -0.605089  1.11057  0  0  -0.169979  0.426489  -0.099796  0.105445  0  0  0  0  -0  -0  0  0  0  0  0  0  0  0  0 
1702484091.299353000  -1.1117  -0.605588  1.1111  0  0  -0.171438  0.426489  -0.099796  0.105445  0  0  0  0  -0  -0  0  0  0  0  0  0  0  0  0 
1702484091.304337000  -1.10957  -0.606087  1.11163  0  0  -0.172904  0.426489  -0.099796  0.105445  0  0  0  0  -0  -0  0  0  0  0  0  0  0  0  0 
1702484091.309341000  -1.10744  -0.606586  1.11216  0  0  -0.174376  0.426489  -0.099796  0.105445  0  0  0  0  -0  -0  0  0  0  0  0  0  0  0  0 
1702484091.314336000  -1.1053  -0.607085  1.11268  0  0  -0.175854  0.426489  -0.099796  0.105445  0  0  0  0  -0  -0  0  0  0  0  0  0  0  0  0 
1702484091.319350000  -1.10317  -0.607584  1.11321  0  0  -0.177338  0.426489  -0.099796  0.105445  0  0  0  0  -0  -0  0  0  0  0  0  0  0  0  0 
1702484091.324333000  -1.10104  -0.608083  1.11374  0  0  -0.178829  0.426489  -0.099796  0.105445  0  0  0  0  -0  -0  0  0  0  0  0  0  0  0  0 
1702484091.329360000  -1.09891  -0.608582  1.11427  0  0  -0.180326  0.426489  -0.099796  0.105445  0  0  0  0  -0  -0  0  0  0  0  0  0  0  0  0 
1702484091.334332000  -1.09677  -0.609081  1.11479  0  0  -0.181829  0.426489  -0.099796  0.105445  0  0  0  0  -0  -0  0  0  0  0  0  0  0  0  0 
1702484091.339349000  -1.09464  -0.60958  1.11532  0  0  -0.183338  0.426489  -0.099796  0.105445  0  0  0  0  -0  -0  0  0  0  0  0  0  0  0  0 
1702484091.344332000  -1.09251  -0.610078  1.11585  0  0  -0.184854  0.426489  -0.099796  0.105445  0  0  0  0  -0  -0  0  0  0  0  0  0  0  0  0 
1702484091.349333000  -1.09038  -0.610577  1.11637  0  0  -0.186376  0.426489  -0.099796  0.105445  0  0  0  0  -0  -0  0  0  0  0  0  0  0  0  0 
1702484091.354333000  -1.08824  -0.611076  1.1169  0  0  -0.187904  0.426489  -0.099796  0.105445  0  0  0  0  -0  -0  0  0  0  0  0  0  0  0  0 
1702484091.359332000  -1.08611  -0.611575  1.11743  0  0  -0.189438  0.426489  -0.099796  0.105445  0  0  0  0  -0  -0  0  0  0  0  0  0  0  0  0 
1702484091.364332000  -1.08398  -0.612074  1.11796  0  0  -0.190979  0.426489  -0.099796  0.105445  0  0  0  0  -0  -0  0  0  0  0  0  0  0  0  0 
1702484091.369339000  -1.08185  -0.612573  1.11848  0  0  -0.192526  0.426489  -0.099796  0.105445  0  0  0  0  -0  -0  0  0  0  0  0  0  0  0  0 
1702484091.374335000  -1.07972  -0.613072  1.11901  0  0  -0.194079  0.426489  -0.099796  0.105445  0  0  0  0  -0  -0  0  0  0  0  0  0  0  0  0 
1702484091.379342000  -1.07758  -0.613571  1.11954  0  0  -0.195638  0.426489  -0.099796  0.105445  0  0  0  0  -0  -0  0  0  0  0  0  0  0  0  0 
1702484091.384331000  -1.07545  -0.61407  1.12006  0  0  -0.197204  0.426489  -0.099796  0.105445  0  0  0  0  -0  -0  0  0  0  0  0  0  0  0  0 
1702484091.389338000  -1.07332  -0.614569  1.12059  0  0  -0.198776  0.426489  -0.099796  0.105445  0  0  0  0  -0  -0  0  0  0  0  0  0  0  0  0 
1702484091.394335000  -1.07119  -0.615068  1.12112  0  0  -0.200354  0.426489  -0.099796  0.105445  0  0  0  0  -0  -0  0  0  0  0  0  0  0  0  0 
1702484091.399344000  -1.06905  -0.615567  1.12165  0  0  -0.201938  0.426489  -0.099796  0.105445  0  0  0  0  -0  -0  0  0  0  0  0  0  0  0  0 
1702484091.404359000  -1.06692  -0.616066  1.12217  0  0  -0.203529  0.426489  -0.099796  0.105445  0  0  0  0  -0  -0  0  0  0  0  0  0  0  0  0 
1702484091.409339000  -1.06479  -0.616565  1.1227  0  0  -0.205126  0.426489  -0.099796  0.105445  0  0  0  0  -0  -0  0  0  0  0  0  0  0  0  0 
1702484091.414338000  -1.06266  -0.617064  1.12323  0  0  -0.206729  0.426489  -0.099796  0.105445  0  0  0  0  -0  -0  0  0  0  0  0  0  0  0  0 
1702484091.419336000  -1.06052  -0.617563  1.12376  0  0  -0.208338  0.426489  -0.099796  0.105445  0  0  0  0  -0  -0  0  0  0  0  0  0  0  0  0 
1702484091.424340000  -1.05839  -0.618062  1.12428  0  0  -0.209954  0.426489  -0.099796  0.105445  0  0  0  0  -0  -0  0  0  0  0  0  0  0  0  0 
1702484091.429332000  -1.05626  -0.618561  1.12481  0  0  -0.211576  0.426489  -0.099796  0.105445  0  0  0  0  -0  -0  0  0  0  0  0  0  0  0  0 
1702484091.434331000  -1.05413  -0.61906  1.12534  0  0  -0.213204  0.426489  -0.099796  0.105445  0  0  0  0  -0  -0  0  0  0  0  0  0  0  0  0 
1702484091.439332000  -1.05199  -0.619559  1.12586  0  0  -0.214838  0.426489  -0.099796  0.105445  0  0  0  0  -0  -0  0  0  0  0  0  0  0  0  0 
1702484091.444331000  -1.04986  -0.620058  1.12639  0  0  -0.216479  0.426489  -0.099796  0.105445  0  0  0  0  -0  -0  0  0  0  0  0  0  0  0  0 
1702484091.449330000  -1.04773  -0.620557  1.12692  0  0  -0.218126  0.426489  -0.099796  0.105445  0  0  0  0  -0  -0  0  0  0  0  0  0  0  0  0 
1702484091.454332000  -1.0456  -0.621056  1.12745  0  0  -0.219779  0.426489  -0.099796  0.105445  0  0  0  0  -0  -0  0  0  0  0  0  0  0  0  0 
1702484091.459337000  -1.04346  -0.621555  1.12797  0  0  -0.221438  0.426489  -0.099796  0.105445  0  0  0  0  -0  -0  0  0  0  0  0  0  0  0  0 
1702484091.464331000  -1.04133  -0.622054  1.1285  0  0  -0.223104  0.426489  -0.099796  0.105445  0  0  0  0  -0  -0  0  0  0  0  0  0  0  0  0 
1702484091.469331000  -1.0392  -0.622553  1.12903  0  0  -0.224776  0.426489  -0.099796  0.105445  0  0  0  0  -0  -0  0  0  0  0  0  0  0  0  0 
1702484091.474331000  -1.03707  -0.623052  1.12955  0  0  -0.226454  0.426489  -0.099796  0.105445  0  0  0  0  -0  -0  0  0  0  0  0  0  0  0  0 
1702484091.479331000  -1.03493  -0.623551  1.13008  0  0  -0.228138  0.426489  -0.099796  0.105445  0  0  0  0  -0  -0  0  0  0  0  0  0  0  0  0 
1702484091.484332000  -1.0328  -0.62405  1.13061  0  0  -0.229829  0.426489  -0.099796  0.105445  0  0  0  0  -0  -0  0  0  0  0  0  0  0  0  0 
1702484091.489332000  -1.03067  -0.624549  1.13114  0  0  -0.231526  0.426489  -0.099796  0.105445  0  0  0  0  -0  -0  0  0  0  0  0  0  0  0  0 
1702484091.494332000  -1.02854  -0.625048  1.13166  0  0  -0.233229  0.426489  -0.099796  0.105445  0  0  0  0  -0  -0  0  0  0  0  0  0  0  0  0 
1702484091.499331000  -1.0264  -0.625547  1.13219  0  0  -0.234938  0.426489  -0.099796  0.105445  0  0  0  0  -0  -0  0  0  0  0  0  0  0  0  0 
1702484091.504332000  -1.02427  -0.626046  1.13272  0  0  -0.236654  0.426489  -0.099796  0.105445  0  0  0  0  -0  -0  0  0  0  0  0  0  0  0  0 
1702484091.509331000  -1.02214  -0.626545  1.13325  0  0  -0.238376  0.426489  -0.099796  0.105445  0  0  0  0  -0  -0  0  0  0  0  0  0  0  0  0 
1702484091.514332000  -1.02001  -0.627044  1.13377  0  0  -0.240104  0.426489  -0.099796  0.105445  0  0  0  0  -0  -0  0  0  0  0  0  0  0  0  0 
1702484091.519332000  -1.01787  -0.627543  1.1343  0  0  -0.241838  0.426489  -0.099796  0.105445  0  0  0  0  -0  -0  0  0  0  0  0  0  0  0  0 
1702484091.524334000  -1.01574  -0.628042  1.13483  0  0  -0.243579  0.426489  -0.099796  0.105445  0  0  0  0  -0  -0  0  0  0  0  0  0  0  0  0 
1702484091.529332000  -1.01361  -0.628541  1.13535  0  0  -0.245326  0.426489  -0.099796  0.105445  0  0  0  0  -0  -0  0  0  0  0  0  0  0  0  0 
1702484091.534332000  -1.01148  -0.62904  1.13588  0  0  -0.247079  0.426489  -0.099796  0.105445  0  0  0  0  -0  -0  0  0  0  0  0  0  0  0  0 
1702484091.539333000  -1.00934  -0.629539  1.13641  0  0  -0.248838  0.426489  -0.099796  0.105445  0  0  0  0  -0  -0  0  0  0  0  0  0  0  0  0 
1702484091.544337000  -1.00721  -0.630038  1.13694  0  0  -0.250604  0.426489  -0.099796  0.105445  0  0  0  0  -0  -0  0  0  0  0  0  0  0  0  0 
1702484091.549333000  -1.00508  -0.630537  1.13746  0  0  -0.252376  0.426489  -0.099796  0.105445  0  0  0  0  -0  -0  0  0  0  0  0  0  0  0  0 
1702484091.554335000  -1.00295  -0.631036  1.13799  0  0  -0.254154  0.426489  -0.099796  0.105445  0  0  0  0  -0  -0  0  0  0  0  0  0  0  0  0 
1702484091.559335000  -1.00081  -0.631535  1.13852  0  0  -0.255938  0.426489  -0.099796  0.105445  0  0  0  0  -0  -0  0  0  0  0  0  0  0  0  0 
1702484091.564333000  -0.998682  -0.632034  1.13904  0  0  -0.257729  0.426489  -0.099796  0.105445  0  0  0  0  -0  -0  0  0  0  0  0  0  0  0  0 
1702484091.569344000  -0.99655  -0.632533  1.13957  0  0  -0.259526  0.426489  -0.099796  0.105445  0  0  0  0  -0  -0  0  0  0  0  0  0  0  0  0 
1702484091.574333000  -0.994417  -0.633032  1.1401  0  0  -0.261329  0.426489  -0.099796  0.105445  0  0  0  0  -0  -0  0  0  0  0  0  0  0  0  0 
1702484091.579353000  -0.992285  -0.633531  1.14063  0  0  -0.263138  0.426489  -0.099796  0.105445  0  0  0  0  -0  -0  0  0  0  0  0  0  0  0  0 
1702484091.584333000  -0.990152  -0.63403  1.14115  0  0  -0.264954  0.426489  -0.099796  0.105445  0  0  0  0  -0  -0  0  0  0  0  0  0  0  0  0 
1702484091.589334000  -0.98802  -0.634529  1.14168  0  0  -0.266776  0.426489  -0.099796  0.105445  0  0  0  0  -0  -0  0  0  0  0  0  0  0  0  0 
1702484091.594334000  -0.985887  -0.635027  1.14221  0  0  -0.268604  0.426489  -0.099796  0.105445  0  0  0  0  -0  -0  0  0  0  0  0  0  0  0  0 
1702484091.599362000  -0.983755  -0.635526  1.14274  0  0  -0.270438  0.426489  -0.099796  0.105445  0  0  0  0  -0  -0  0  0  0  0  0  0  0  0  0 
1702484091.604332000  -0.981623  -0.636025  1.14326  0  0  -0.272279  0.426489  -0.099796  0.105445  0  0  0  0  -0  -0  0  0  0  0  0  0  0  0  0 
1702484091.609332000  -0.97949  -0.636524  1.14379  0  0  -0.274126  0.426489  -0.099796  0.105445  0  0  0  0  -0  -0  0  0  0  0  0  0  0  0  0 
1702484091.614331000  -0.977358  -0.637023  1.14432  0  0  -0.275979  0.426489  -0.099796  0.105445  0  0  0  0  -0  -0  0  0  0  0  0  0  0  0  0 
1702484091.619340000  -0.975225  -0.637522  1.14484  0  0  -0.277838  0.426489  -0.099796  0.105445  0  0  0  0  -0  -0  0  0  0  0  0  0  0  0  0 
1702484091.624331000  -0.973093  -0.638021  1.14537  0  0  -0.279704  0.426489  -0.099796  0.105445  0  0  0  0  -0  -0  0  0  0  0  0  0  0  0  0 
1702484091.629331000  -0.97096  -0.63852  1.1459  0  0  -0.281576  0.426489  -0.099796  0.105445  0  0  0  0  -0  -0  0  0  0  0  0  0  0  0  0 
1702484091.634330000  -0.968828  -0.639019  1.14643  0  0  -0.283454  0.426489  -0.099796  0.105445  0  0  0  0  -0  -0  0  0  0  0  0  0  0  0  0 
1702484091.639331000  -0.966695  -0.639518  1.14695  0  0  -0.285338  0.426489  -0.099796  0.105445  0  0  0  0  -0  -0  0  0  0  0  0  0  0  0  0 
1702484091.644331000  -0.964563  -0.640017  1.14748  0  0  -0.287229  0.426489  -0.099796  0.105445  0  0  0  0  -0  -0  0  0  0  0  0  0  0  0  0 
1702484091.649331000  -0.962431  -0.640516  1.14801  0  0  -0.289126  0.426489  -0.099796  0.105445  0  0  0  0  -0  -0  0  0  0  0  0  0  0  0  0 
1702484091.654331000  -0.960298  -0.641015  1.14853  0  0  -0.291029  0.426489  -0.099796  0.105445  0  0  0  0  -0  -0  0  0  0  0  0  0  0  0  0 
1702484091.659331000  -0.958166  -0.641514  1.14906  0  0  -0.292938  0.426489  -0.099796  0.105445  0  0  0  0  -0  -0  0  0  0  0  0  0  0  0  0 
1702484091.664332000  -0.956033  -0.642013  1.14959  0  0  -0.294854  0.426489  -0.099796  0.105445  0  0  0  0  -0  -0  0  0  0  0  0  0  0  0  0 
1702484091.669332000  -0.953901  -0.642512  1.15012  0  0  -0.296775  0.426489  -0.099796  0.105445  0  0  0  0  -0  -0  0  0  0  0  0  0  0  0  0 
1702484091.674331000  -0.951768  -0.643011  1.15064  0  0  -0.298703  0.426489  -0.099796  0.105445  0  0  0  0  -0  -0  0  0  0  0  0  0  0  0  0 
1702484091.679338000  -0.949636  -0.64351  1.15117  0  0  -0.300638  0.426489  -0.099796  0.105445  0  0  0  0  -0  -0  0  0  0  0  0  0  0  0  0 
1702484091.684332000  -0.947503  -0.644009  1.1517  0  0  -0.302578  0.426489  -0.099796  0.105445  0  0  0  0  -0  -0  0  0  0  0  0  0  0  0  0 
1702484091.689331000  -0.945371  -0.644508  1.15223  0  0  -0.304524  0.426489  -0.099796  0.105445  0  0  0  0  -0  -0  0  0  0  0  0  0  0  0  0 
1702484091.694331000  -0.943239  -0.645007  1.15275  0  0  -0.306477  0.426489  -0.099796  0.105445  0  0  0  0  -0  -0  0  0  0  0  0  0  0  0  0 
1702484091.699358000  -0.941106  -0.645506  1.15328  0  0  -0.308435  0.426489  -0.099796  0.105445  0  0  0  0  -0  -0  0  0  0  0  0  0  0  0  0 
1702484091.704332000  -0.938974  -0.646005  1.15381  0  0  -0.310399  0.426489  -0.099796  0.105445  0  0  0  0  -0  -0  0  0  0  0  0  0  0  0  0 
1702484091.709331000  -0.936841  -0.646504  1.15433  0  0  -0.312369  0.426489  -0.099796  0.105445  0  0  0  0  -0  -0  0  0  0  0  0  0  0  0  0 
1702484091.714332000  -0.934709  -0.647003  1.15486  0  0  -0.314344  0.426489  -0.099796  0.105445  0  0  0  0  -0  -0  0  0  0  0  0  0  0  0  0 
1702484091.719331000  -0.932576  -0.647502  1.15539  0  0  -0.316325  0.426489  -0.099796  0.105445  0  0  0  0  -0  -0  0  0  0  0  0  0  0  0  0 
1702484091.724330000  -0.930444  -0.648001  1.15592  0  0  -0.318311  0.426489  -0.099796  0.105445  0  0  0  0  -0  -0  0  0  0  0  0  0  0  0  0 
1702484091.729332000  -0.928311  -0.6485  1.15644  0  0  -0.320302  0.426489  -0.099796  0.105445  0  0  0  0  -0  -0  0  0  0  0  0  0  0  0  0 
1702484091.734334000  -0.926179  -0.648999  1.15697  0  0  -0.322299  0.426489  -0.099796  0.105445  0  0  0  0  -0  -0  0  0  0  0  0  0  0  0  0 
1702484091.739332000  -0.924047  -0.649498  1.1575  0  0  -0.3243  0.426489  -0.099796  0.105445  0  0  0  0  -0  -0  0  0  0  0  0  0  0  0  0 
1702484091.744332000  -0.921914  -0.649997  1.15803  0  0  -0.326306  0.426489  -0.099796  0.105445  0  0  0  0  -0  -0  0  0  0  0  0  0  0  0  0 
1702484091.749345000  -0.919782  -0.650496  1.15855  0  0  -0.328317  0.426489  -0.099796  0.105445  0  0  0  0  -0  -0  0  0  0  0  0  0  0  0  0 
1702484091.754334000  -0.917649  -0.650995  1.15908  0  0  -0.330332  0.426489  -0.099796  0.105445  0  0  0  0  -0  -0  0  0  0  0  0  0  0  0  0 
1702484091.759346000  -0.915517  -0.651494  1.15961  0  0  -0.332352  0.426489  -0.099796  0.105445  0  0  0  0  -0  -0  0  0  0  0  0  0  0  0  0 
1702484091.764332000  -0.913384  -0.651993  1.16013  0  0  -0.334375  0.426489  -0.099796  0.105445  0  0  0  0  -0  -0  0  0  0  0  0  0  0  0  0 
1702484091.769336000  -0.911252  -0.652492  1.16066  0  0  -0.336402  0.426489  -0.099796  0.105445  0  0  0  0  -0  -0  0  0  0  0  0  0  0  0  0 
1702484091.774336000  -0.909119  -0.652991  1.16119  0  0  -0.338432  0.426489  -0.099796  0.105445  0  0  0  0  -0  -0  0  0  0  0  0  0  0  0  0 
1702484091.779346000  -0.906987  -0.65349  1.16172  0  0  -0.340466  0.426489  -0.099796  0.105445  0  0  0  0  -0  -0  0  0  0  0  0  0  0  0  0 
1702484091.784346000  -0.904855  -0.653989  1.16224  0  0  -0.342503  0.426489  -0.099796  0.105445  0  0  0  0  -0  -0  0  0  0  0  0  0  0  0  0 
1702484091.789346000  -0.902722  -0.654488  1.16277  0  0  -0.344543  0.426489  -0.099796  0.105445  0  0  0  0  -0  -0  0  0  0  0  0  0  0  0  0 
1702484091.794341000  -0.90059  -0.654987  1.1633  0  0  -0.346585  0.426489  -0.099796  0.105445  0  0  0  0  -0  -0  0  0  0  0  0  0  0  0  0 
1702484091.799347000  -0.898457  -0.655486  1.16382  0  0  -0.348629  0.426489  -0.099796  0.105445  0  0  0  0  -0  -0  0  0  0  0  0  0  0  0  0 
1702484091.804332000  -0.896325  -0.655985  1.16435  0  0  -0.350676  0.426489  -0.099796  0.105445  0  0  0  0  -0  -0  0  0  0  0  0  0  0  0  0 
1702484091.809331000  -0.894192  -0.656484  1.16488  0  0  -0.352725  0.426489  -0.099796  0.105445  0  0  0  0  -0  -0  0  0  0  0  0  0  0  0  0 
1702484091.814333000  -0.89206  -0.656983  1.16541  0  0  -0.354775  0.426489  -0.099796  0.105445  0  0  0  0  -0  -0  0  0  0  0  0  0  0  0  0 
1702484091.819345000  -0.889927  -0.657482  1.16593  0  0  -0.356827  0.426489  -0.099796  0.105445  0  0  0  0  -0  -0  0  0  0  0  0  0  0  0  0 
1702484091.824333000  -0.887795  -0.657981  1.16646  0  0  -0.35888  0.426489  -0.099796  0.105445  0  0  0  0  -0  -0  0  0  0  0  0  0  0  0  0 
1702484091.829346000  -0.885663  -0.65848  1.16699  0  0  -0.360935  0.426489  -0.099796  0.105445  0  0  0  0  -0  -0  0  0  0  0  0  0  0  0  0 
1702484091.834334000  -0.88353  -0.658979  1.16752  0  0  -0.362991  0.426489  -0.099796  0.105445  0  0  0  0  -0  -0  0  0  0  0  0  0  0  0  0 
1702484091.839333000  -0.881398  -0.659478  1.16804  0  0  -0.365047  0.426489  -0.099796  0.105445  0  0  0  0  -0  -0  0  0  0  0  0  0  0  0  0 
1702484091.844332000  -0.879265  -0.659976  1.16857  0  0  -0.367104  0.426489  -0.099796  0.105445  0  0  0  0  -0  -0  0  0  0  0  0  0  0  0  0 
1702484091.849331000  -0.877133  -0.660475  1.1691  0  0  -0.369162  0.426489  -0.099796  0.105445  0  0  0  0  -0  -0  0  0  0  0  0  0  0  0  0 
1702484091.854334000  -0.875  -0.660974  1.16962  0  0  -0.371221  0.426489  -0.099796  0.105445  0  0  0  0  -0  -0  0  0  0  0  0  0  0  0  0 
1702484091.859333000  -0.872868  -0.661473  1.17015  0  0  -0.37328  0.426489  -0.099796  0.105445  0  0  0  0  -0  -0  0  0  0  0  0  0  0  0  0 
1702484091.864332000  -0.870735  -0.661972  1.17068  0  0  -0.37534  0.426489  -0.099796  0.105445  0  0  0  0  -0  -0  0  0  0  0  0  0  0  0  0 
1702484091.869331000  -0.868603  -0.662471  1.17121  0  0  -0.377399  0.426489  -0.099796  0.105445  0  0  0  0  -0  -0  0  0  0  0  0  0  0  0  0 
1702484091.874332000  -0.866471  -0.66297  1.17173  0  0  -0.379459  0.426489  -0.099796  0.105445  0  0  0  0  -0  -0  0  0  0  0  0  0  0  0  0 
1702484091.879332000  -0.864338  -0.663469  1.17226  0  0  -0.381519  0.426489  -0.099796  0.105445  0  0  0  0  -0  -0  0  0  0  0  0  0  0  0  0 
1702484091.884332000  -0.862206  -0.663968  1.17279  0  0  -0.38358  0.426489  -0.099796  0.105445  0  0  0  0  -0  -0  0  0  0  0  0  0  0  0  0 
1702484091.889332000  -0.860073  -0.664467  1.17331  0  0  -0.38564  0.426489  -0.099796  0.105445  0  0  0  0  -0  -0  0  0  0  0  0  0  0  0  0 
1702484091.894335000  -0.857941  -0.664966  1.17384  0  0  -0.3877  0.426489  -0.099796  0.105445  0  0  0  0  -0  -0  0  0  0  0  0  0  0  0  0 
1702484091.899332000  -0.855808  -0.665465  1.17437  0  0  -0.389761  0.426489  -0.099796  0.105445  0  0  0  0  -0  -0  0  0  0  0  0  0  0  0  0 
1702484091.904332000  -0.853676  -0.665964  1.1749  0  0  -0.391821  0.426489  -0.099796  0.105445  0  0  0  0  -0  -0  0  0  0  0  0  0  0  0  0 
1702484091.909332000  -0.851543  -0.666463  1.17542  0  0  -0.393881  0.426489  -0.099796  0.105445  0  0  0  0  -0  -0  0  0  0  0  0  0  0  0  0 
1702484091.914334000  -0.849411  -0.666962  1.17595  0  0  -0.395942  0.426489  -0.099796  0.105445  0  0  0  0  -0  -0  0  0  0  0  0  0  0  0  0 
1702484091.919333000  -0.847279  -0.667461  1.17648  0  0  -0.398002  0.426489  -0.099796  0.105445  0  0  0  0  -0  -0  0  0  0  0  0  0  0  0  0 
1702484091.924335000  -0.845146  -0.66796  1.17701  0  0  -0.400062  0.426489  -0.099796  0.105445  0  0  0  0  -0  -0  0  0  0  0  0  0  0  0  0 
1702484091.929334000  -0.843014  -0.668459  1.17753  0  0  -0.402122  0.426489  -0.099796  0.105445  0  0  0  0  -0  -0  0  0  0  0  0  0  0  0  0 
1702484091.934335000  -0.840881  -0.668958  1.17806  0  0  -0.404182  0.426489  -0.099796  0.105445  0  0  0  0  -0  -0  0  0  0  0  0  0  0  0  0 
1702484091.939334000  -0.838749  -0.669457  1.17859  0  0  -0.406242  0.426489  -0.099796  0.105445  0  0  0  0  -0  -0  0  0  0  0  0  0  0  0  0 
1702484091.944332000  -0.836616  -0.669956  1.17911  0  0  -0.408302  0.426489  -0.099796  0.105445  0  0  0  0  -0  -0  0  0  0  0  0  0  0  0  0 
1702484091.949344000  -0.834484  -0.670455  1.17964  0  0  -0.410361  0.426489  -0.099796  0.105445  0  0  0  0  -0  -0  0  0  0  0  0  0  0  0  0 
1702484091.954332000  -0.832351  -0.670954  1.18017  0  0  -0.41242  0.426489  -0.099796  0.105445  0  0  0  0  -0  -0  0  0  0  0  0  0  0  0  0 
1702484091.959344000  -0.830219  -0.671453  1.1807  0  0  -0.414478  0.426489  -0.099796  0.105445  0  0  0  0  -0  -0  0  0  0  0  0  0  0  0  0 
1702484091.964332000  -0.828087  -0.671952  1.18122  0  0  -0.416536  0.426489  -0.099796  0.105445  0  0  0  0  -0  -0  0  0  0  0  0  0  0  0  0 
1702484091.969348000  -0.825954  -0.672451  1.18175  0  0  -0.418592  0.426489  -0.099796  0.105445  0  0  0  0  -0  -0  0  0  0  0  0  0  0  0  0 
1702484091.974333000  -0.823822  -0.67295  1.18228  0  0  -0.420648  0.426489  -0.099796  0.105445  0  0  0  0  -0  -0  0  0  0  0  0  0  0  0  0 
1702484091.979339000  -0.821689  -0.673449  1.1828  0  0  -0.422703  0.426489  -0.099796  0.105445  0  0  0  0  -0  -0  0  0  0  0  0  0  0  0  0 
1702484091.984335000  -0.819557  -0.673948  1.18333  0  0  -0.424757  0.426489  -0.099796  0.105445  0  0  0  0  -0  -0  0  0  0  0  0  0  0  0  0 
1702484091.989346000  -0.817424  -0.674447  1.18386  0  0  -0.426809  0.426489  -0.099796  0.105445  0  0  0  0  -0  -0  0  0  0  0  0  0  0  0  0 
1702484091.994334000  -0.815292  -0.674946  1.18439  0  0  -0.42886  0.426489  -0.099796  0.105445  0  0  0  0  -0  -0  0  0  0  0  0  0  0  0  0 
1702484091.999332000  -0.813159  -0.675445  1.18491  0  0  -0.430909  0.426489  -0.099796  0.105445  0  0  0  0  -0  -0  0  0  0  0  0  0  0  0  0 
1702484092.004332000  -0.811027  -0.675944  1.18544  0  0  -0.432957  0.426489  -0.099796  0.105445  0  0  0  0  -0  -0  0  0  0  0  0  0  0  0  0 
1702484092.009332000  -0.808895  -0.676443  1.18597  0  0  -0.435002  0.426489  -0.099796  0.105445  0  0  0  0  -0  -0  0  0  0  0  0  0  0  0  0 
1702484092.014334000  -0.806762  -0.676942  1.1865  0  0  -0.437045  0.426489  -0.099796  0.105445  0  0  0  0  -0  -0  0  0  0  0  0  0  0  0  0 
1702484092.019333000  -0.80463  -0.677441  1.18702  0  0  -0.439086  0.426489  -0.099796  0.105445  0  0  0  0  -0  -0  0  0  0  0  0  0  0  0  0 
1702484092.024332000  -0.802497  -0.67794  1.18755  0  0  -0.441123  0.426489  -0.099796  0.105445  0  0  0  0  -0  -0  0  0  0  0  0  0  0  0  0 
1702484092.029336000  -0.800365  -0.678439  1.18808  0  0  -0.443158  0.426489  -0.099796  0.105445  0  0  0  0  -0  -0  0  0  0  0  0  0  0  0  0 
1702484092.034333000  -0.798232  -0.678938  1.1886  0  0  -0.44519  0.426489  -0.099796  0.105445  0  0  0  0  -0  -0  0  0  0  0  0  0  0  0  0 
1702484092.039353000  -0.7961  -0.679437  1.18913  0  0  -0.447218  0.426489  -0.099796  0.105445  0  0  0  0  -0  -0  0  0  0  0  0  0  0  0  0 
1702484092.044338000  -0.793967  -0.679936  1.18966  0  0  -0.449242  0.426489  -0.099796  0.105445  0  0  0  0  -0  -0  0  0  0  0  0  0  0  0  0 
1702484092.049372000  -0.791835  -0.680435  1.19019  0  0  -0.451263  0.426489  -0.099796  0.105445  0  0  0  0  -0  -0  0  0  0  0  0  0  0  0  0 
1702484092.054346000  -0.789703  -0.680934  1.19071  0  0  -0.453279  0.426489  -0.099796  0.105445  0  0  0  0  -0  -0  0  0  0  0  0  0  0  0  0 
1702484092.059368000  -0.78757  -0.681433  1.19124  0  0  -0.455292  0.426489  -0.099796  0.105445  0  0  0  0  -0  -0  0  0  0  0  0  0  0  0  0 
1702484092.064333000  -0.785438  -0.681932  1.19177  0  0  -0.457299  0.426489  -0.099796  0.105445  0  0  0  0  -0  -0  0  0  0  0  0  0  0  0  0 
1702484092.069334000  -0.783305  -0.682431  1.19229  0  0  -0.459302  0.426489  -0.099796  0.105445  0  0  0  0  -0  -0  0  0  0  0  0  0  0  0  0 
1702484092.074333000  -0.781173  -0.68293  1.19282  0  0  -0.4613  0.426489  -0.099796  0.105445  0  0  0  0  -0  -0  0  0  0  0  0  0  0  0  0 
1702484092.079341000  -0.77904  -0.683429  1.19335  0  0  -0.463293  0.426489  -0.099796  0.105445  0  0  0  0  -0  -0  0  0  0  0  0  0  0  0  0 
1702484092.084333000  -0.776908  -0.683928  1.19388  0  0  -0.465281  0.426489  -0.099796  0.105445  0  0  0  0  -0  -0  0  0  0  0  0  0  0  0  0 
1702484092.089333000  -0.774775  -0.684426  1.1944  0  0  -0.467264  0.426489  -0.099796  0.105445  0  0  0  0  -0  -0  0  0  0  0  0  0  0  0  0 
1702484092.094334000  -0.772643  -0.684925  1.19493  0  0  -0.469241  0.426489  -0.099796  0.105445  0  0  0  0  -0  -0  0  0  0  0  0  0  0  0  0 
1702484092.099331000  -0.770511  -0.685424  1.19546  0  0  -0.471212  0.426489  -0.099796  0.105445  0  0  0  0  -0  -0  0  0  0  0  0  0  0  0  0 
1702484092.104332000  -0.768378  -0.685923  1.19599  0  0  -0.473178  0.426489  -0.099796  0.105445  0  0  0  0  -0  -0  0  0  0  0  0  0  0  0  0 
1702484092.109341000  -0.766246  -0.686422  1.19651  0  0  -0.475138  0.426489  -0.099796  0.105445  0  0  0  0  -0  -0  0  0  0  0  0  0  0  0  0 
1702484092.114334000  -0.764113  -0.686921  1.19704  0  0  -0.477092  0.426489  -0.099796  0.105445  0  0  0  0  -0  -0  0  0  0  0  0  0  0  0  0 
1702484092.119347000  -0.761981  -0.68742  1.19757  0  0  -0.479041  0.426489  -0.099796  0.105445  0  0  0  0  -0  -0  0  0  0  0  0  0  0  0  0 
1702484092.124331000  -0.759848  -0.687919  1.19809  0  0  -0.480983  0.426489  -0.099796  0.105445  0  0  0  0  -0  -0  0  0  0  0  0  0  0  0  0 
1702484092.129346000  -0.757716  -0.688418  1.19862  0  0  -0.482919  0.426489  -0.099796  0.105445  0  0  0  0  -0  -0  0  0  0  0  0  0  0  0  0 
1702484092.134338000  -0.755583  -0.688917  1.19915  0  0  -0.484849  0.426489  -0.099796  0.105445  0  0  0  0  -0  -0  0  0  0  0  0  0  0  0  0 
1702484092.139350000  -0.753451  -0.689416  1.19968  0  0  -0.486773  0.426489  -0.099796  0.105445  0  0  0  0  -0  -0  0  0  0  0  0  0  0  0  0 
1702484092.144331000  -0.751319  -0.689915  1.2002  0  0  -0.488691  0.426489  -0.099796  0.105445  0  0  0  0  -0  -0  0  0  0  0  0  0  0  0  0 
1702484092.149344000  -0.749186  -0.690414  1.20073  0  0  -0.490602  0.426489  -0.099796  0.105445  0  0  0  0  -0  -0  0  0  0  0  0  0  0  0  0 
1702484092.154355000  -0.747054  -0.690913  1.20126  0  0  -0.492507  0.426489  -0.099796  0.105445  0  0  0  0  -0  -0  0  0  0  0  0  0  0  0  0 
1702484092.159345000  -0.744921  -0.691412  1.20178  0  0  -0.494406  0.426489  -0.099796  0.105445  0  0  0  0  -0  -0  0  0  0  0  0  0  0  0  0 
1702484092.164338000  -0.742789  -0.691911  1.20231  0  0  -0.496299  0.426489  -0.099796  0.105445  0  0  0  0  -0  -0  0  0  0  0  0  0  0  0  0 
1702484092.169332000  -0.740656  -0.69241  1.20284  0  0  -0.498185  0.426489  -0.099796  0.105445  0  0  0  0  -0  -0  0  0  0  0  0  0  0  0  0 
1702484092.174332000  -0.738524  -0.692909  1.20337  0  0  -0.500065  0.426489  -0.099796  0.105445  0  0  0  0  -0  -0  0  0  0  0  0  0  0  0  0 
1702484092.179331000  -0.736391  -0.693408  1.20389  0  0  -0.501939  0.426489  -0.099796  0.105445  0  0  0  0  -0  -0  0  0  0  0  0  0  0  0  0 
1702484092.184331000  -0.734259  -0.693907  1.20442  0  0  -0.503807  0.426489  -0.099796  0.105445  0  0  0  0  -0  -0  0  0  0  0  0  0  0  0  0 
1702484092.189345000  -0.732127  -0.694406  1.20495  0  0  -0.505668  0.426489  -0.099796  0.105445  0  0  0  0  -0  -0  0  0  0  0  0  0  0  0  0 
1702484092.194331000  -0.729994  -0.694905  1.20548  0  0  -0.507523  0.426489  -0.099796  0.105445  0  0  0  0  -0  -0  0  0  0  0  0  0  0  0  0 
1702484092.199340000  -0.727862  -0.695404  1.206  0  0  -0.509372  0.426489  -0.099796  0.105445  0  0  0  0  -0  -0  0  0  0  0  0  0  0  0  0 
1702484092.204346000  -0.725729  -0.695903  1.20653  0  0  -0.511214  0.426489  -0.099796  0.105445  0  0  0  0  -0  -0  0  0  0  0  0  0  0  0  0 
1702484092.209331000  -0.723597  -0.696402  1.20706  0  0  -0.513051  0.426489  -0.099796  0.105445  0  0  0  0  -0  -0  0  0  0  0  0  0  0  0  0 
1702484092.214344000  -0.721464  -0.696901  1.20758  0  0  -0.514881  0.426489  -0.099796  0.105445  0  0  0  0  -0  -0  0  0  0  0  0  0  0  0  0 
1702484092.219331000  -0.719332  -0.6974  1.20811  0  0  -0.516705  0.426489  -0.099796  0.105445  0  0  0  0  -0  -0  0  0  0  0  0  0  0  0  0 
1702484092.224331000  -0.717199  -0.697899  1.20864  0  0  -0.518522  0.426489  -0.099796  0.105445  0  0  0  0  -0  -0  0  0  0  0  0  0  0  0  0 
1702484092.229331000  -0.715067  -0.698398  1.20917  0  0  -0.520334  0.426489  -0.099796  0.105445  0  0  0  0  -0  -0  0  0  0  0  0  0  0  0  0 
1702484092.234332000  -0.712935  -0.698897  1.20969  0  0  -0.522139  0.426489  -0.099796  0.105445  0  0  0  0  -0  -0  0  0  0  0  0  0  0  0  0 
1702484092.239331000  -0.710802  -0.699396  1.21022  0  0  -0.523938  0.426489  -0.099796  0.105445  0  0  0  0  -0  -0  0  0  0  0  0  0  0  0  0 
1702484092.244344000  -0.70867  -0.699895  1.21075  0  0  -0.52573  0.426489  -0.099796  0.105445  0  0  0  0  -0  -0  0  0  0  0  0  0  0  0  0 
1702484092.249331000  -0.706537  -0.700394  1.21127  0  0  -0.527517  0.426489  -0.099796  0.105445  0  0  0  0  -0  -0  0  0  0  0  0  0  0  0  0 
1702484092.254332000  -0.704405  -0.700893  1.2118  0  0  -0.529297  0.426489  -0.099796  0.105445  0  0  0  0  -0  -0  0  0  0  0  0  0  0  0  0 
1702484092.259331000  -0.702272  -0.701392  1.21233  0  0  -0.531071  0.426489  -0.099796  0.105445  0  0  0  0  -0  -0  0  0  0  0  0  0  0  0  0 
1702484092.264343000  -0.70014  -0.701891  1.21286  0  0  -0.532838  0.426489  -0.099796  0.105445  0  0  0  0  -0  -0  0  0  0  0  0  0  0  0  0 
1702484092.269331000  -0.698007  -0.70239  1.21338  0  0  -0.5346  0.426489  -0.099796  0.105445  0  0  0  0  -0  -0  0  0  0  0  0  0  0  0  0 
1702484092.274332000  -0.695875  -0.702889  1.21391  0  0  -0.536355  0.426489  -0.099796  0.105445  0  0  0  0  -0  -0  0  0  0  0  0  0  0  0  0 
1702484092.279332000  -0.693743  -0.703388  1.21444  0  0  -0.538104  0.426489  -0.099796  0.105445  0  0  0  0  -0  -0  0  0  0  0  0  0  0  0  0 
1702484092.284332000  -0.69161  -0.703887  1.21497  0  0  -0.539846  0.426489  -0.099796  0.105445  0  0  0  0  -0  -0  0  0  0  0  0  0  0  0  0 
1702484092.289346000  -0.689478  -0.704386  1.21549  0  0  -0.541583  0.426489  -0.099796  0.105445  0  0  0  0  -0  -0  0  0  0  0  0  0  0  0  0 
1702484092.294332000  -0.687345  -0.704885  1.21602  0  0  -0.543313  0.426489  -0.099796  0.105445  0  0  0  0  -0  -0  0  0  0  0  0  0  0  0  0 
1702484092.299331000  -0.685213  -0.705384  1.21655  0  0  -0.545037  0.426489  -0.099796  0.105445  0  0  0  0  -0  -0  0  0  0  0  0  0  0  0  0 
1702484092.304332000  -0.68308  -0.705883  1.21707  0  0  -0.546754  0.426489  -0.099796  0.105445  0  0  0  0  -0  -0  0  0  0  0  0  0  0  0  0 
1702484092.309345000  -0.680948  -0.706382  1.2176  0  0  -0.548466  0.426489  -0.099796  0.105445  0  0  0  0  -0  -0  0  0  0  0  0  0  0  0  0 
1702484092.314332000  -0.678815  -0.706881  1.21813  0  0  -0.550171  0.426489  -0.099796  0.105445  0  0  0  0  -0  -0  0  0  0  0  0  0  0  0  0 
1702484092.319332000  -0.676683  -0.70738  1.21866  0  0  -0.55187  0.426489  -0.099796  0.105445  0  0  0  0  -0  -0  0  0  0  0  0  0  0  0  0 
1702484092.324333000  -0.674551  -0.707879  1.21918  0  0  -0.553562  0.426489  -0.099796  0.105445  0  0  0  0  -0  -0  0  0  0  0  0  0  0  0  0 
1702484092.329332000  -0.672418  -0.708378  1.21971  0  0  -0.555249  0.426489  -0.099796  0.105445  0  0  0  0  -0  -0  0  0  0  0  0  0  0  0  0 
1702484092.334333000  -0.670286  -0.708877  1.22024  0  0  -0.556929  0.426489  -0.099796  0.105445  0  0  0  0  -0  -0  0  0  0  0  0  0  0  0  0 
1702484092.339333000  -0.668153  -0.709375  1.22076  0  0  -0.558603  0.426489  -0.099796  0.105445  0  0  0  0  -0  -0  0  0  0  0  0  0  0  0  0 
1702484092.344332000  -0.666021  -0.709874  1.22129  0  0  -0.56027  0.426489  -0.099796  0.105445  0  0  0  0  -0  -0  0  0  0  0  0  0  0  0  0 
1702484092.349347000  -0.663888  -0.710373  1.22182  0  0  -0.561932  0.426489  -0.099796  0.105445  0  0  0  0  -0  -0  0  0  0  0  0  0  0  0  0 
1702484092.354334000  -0.661756  -0.710872  1.22235  0  0  -0.563587  0.426489  -0.099796  0.105445  0  0  0  0  -0  -0  0  0  0  0  0  0  0  0  0 
1702484092.359332000  -0.659623  -0.711371  1.22287  0  0  -0.565236  0.426489  -0.099796  0.105445  0  0  0  0  -0  -0  0  0  0  0  0  0  0  0  0 
1702484092.364333000  -0.657491  -0.71187  1.2234  0  0  -0.566878  0.426489  -0.099796  0.105445  0  0  0  0  -0  -0  0  0  0  0  0  0  0  0  0 
1702484092.369332000  -0.655359  -0.712369  1.22393  0  0  -0.568515  0.426489  -0.099796  0.105445  0  0  0  0  -0  -0  0  0  0  0  0  0  0  0  0 
1702484092.374333000  -0.653226  -0.712868  1.22446  0  0  -0.570145  0.426489  -0.099796  0.105445  0  0  0  0  -0  -0  0  0  0  0  0  0  0  0  0 
1702484092.379332000  -0.651094  -0.713367  1.22498  0  0  -0.571769  0.426489  -0.099796  0.105445  0  0  0  0  -0  -0  0  0  0  0  0  0  0  0  0 
1702484092.384332000  -0.648961  -0.713866  1.22551  0  0  -0.573386  0.426489  -0.099796  0.105445  0  0  0  0  -0  -0  0  0  0  0  0  0  0  0  0 
1702484092.389331000  -0.646829  -0.714365  1.22604  0  0  -0.574998  0.426489  -0.099796  0.105445  0  0  0  0  -0  -0  0  0  0  0  0  0  0  0  0 
1702484092.394332000  -0.644696  -0.714864  1.22656  0  0  -0.576603  0.426489  -0.099796  0.105445  0  0  0  0  -0  -0  0  0  0  0  0  0  0  0  0 
1702484092.399342000  -0.642564  -0.715363  1.22709  0  0  -0.578202  0.426489  -0.099796  0.105445  0  0  0  0  -0  -0  0  0  0  0  0  0  0  0  0 
1702484092.404332000  -0.640431  -0.715862  1.22762  0  0  -0.579794  0.426489  -0.099796  0.105445  0  0  0  0  -0  -0  0  0  0  0  0  0  0  0  0 
1702484092.409341000  -0.638299  -0.716361  1.22815  0  0  -0.581381  0.426489  -0.099796  0.105445  0  0  0  0  -0  -0  0  0  0  0  0  0  0  0  0 
1702484092.414332000  -0.636167  -0.71686  1.22867  0  0  -0.582961  0.426489  -0.099796  0.105445  0  0  0  0  -0  -0  0  0  0  0  0  0  0  0  0 
1702484092.419340000  -0.634034  -0.717359  1.2292  0  0  -0.584535  0.426489  -0.099796  0.105445  0  0  0  0  -0  -0  0  0  0  0  0  0  0  0  0 
1702484092.424332000  -0.631902  -0.717858  1.22973  0  0  -0.586102  0.426489  -0.099796  0.105445  0  0  0  0  -0  -0  0  0  0  0  0  0  0  0  0 
1702484092.429331000  -0.629769  -0.718357  1.23026  0  0  -0.587664  0.426489  -0.099796  0.105445  0  0  0  0  -0  -0  0  0  0  0  0  0  0  0  0 
1702484092.434333000  -0.627637  -0.718856  1.23078  0  0  -0.589219  0.426489  -0.099796  0.105445  0  0  0  0  -0  -0  0  0  0  0  0  0  0  0  0 
1702484092.439332000  -0.625504  -0.719355  1.23131  0  0  -0.590768  0.426489  -0.099796  0.105445  0  0  0  0  -0  -0  0  0  0  0  0  0  0  0  0 
1702484092.444332000  -0.623372  -0.719854  1.23184  0  0  -0.59231  0.426489  -0.099796  0.105445  0  0  0  0  -0  -0  0  0  0  0  0  0  0  0  0 
1702484092.449331000  -0.621239  -0.720353  1.23236  0  0  -0.593847  0.426489  -0.099796  0.105445  0  0  0  0  -0  -0  0  0  0  0  0  0  0  0  0 
1702484092.454332000  -0.619107  -0.720852  1.23289  0  0  -0.595377  0.426489  -0.099796  0.105445  0  0  0  0  -0  -0  0  0  0  0  0  0  0  0  0 
1702484092.459340000  -0.616975  -0.721351  1.23342  0  0  -0.596901  0.426489  -0.099796  0.105445  0  0  0  0  -0  -0  0  0  0  0  0  0  0  0  0 
1702484092.464332000  -0.614842  -0.72185  1.23395  0  0  -0.598418  0.426489  -0.099796  0.105445  0  0  0  0  -0  -0  0  0  0  0  0  0  0  0  0 
1702484092.469350000  -0.61271  -0.722349  1.23447  0  0  -0.59993  0.426489  -0.099796  0.105445  0  0  0  0  -0  -0  0  0  0  0  0  0  0  0  0 
1702484092.474331000  -0.610577  -0.722848  1.235  0  0  -0.601435  0.426489  -0.099796  0.105445  0  0  0  0  -0  -0  0  0  0  0  0  0  0  0  0 
1702484092.479351000  -0.608445  -0.723347  1.23553  0  0  -0.602934  0.426489  -0.099796  0.105445  0  0  0  0  -0  -0  0  0  0  0  0  0  0  0  0 
1702484092.484332000  -0.606312  -0.723846  1.23605  0  0  -0.604426  0.426489  -0.099796  0.105445  0  0  0  0  -0  -0  0  0  0  0  0  0  0  0  0 
1702484092.489342000  -0.60418  -0.724345  1.23658  0  0  -0.605913  0.426489  -0.099796  0.105445  0  0  0  0  -0  -0  0  0  0  0  0  0  0  0  0 
1702484092.494331000  -0.602047  -0.724844  1.23711  0  0  -0.607393  0.426489  -0.099796  0.105445  0  0  0  0  -0  -0  0  0  0  0  0  0  0  0  0 
1702484092.499345000  -0.599915  -0.725343  1.23764  0  0  -0.608867  0.426489  -0.099796  0.105445  0  0  0  0  -0  -0  0  0  0  0  0  0  0  0  0 
1702484092.504332000  -0.597783  -0.725842  1.23816  0  0  -0.610334  0.426489  -0.099796  0.105445  0  0  0  0  -0  -0  0  0  0  0  0  0  0  0  0 
1702484092.509347000  -0.59565  -0.726341  1.23869  0  0  -0.611796  0.426489  -0.099796  0.105445  0  0  0  0  -0  -0  0  0  0  0  0  0  0  0  0 
1702484092.514332000  -0.593518  -0.72684  1.23922  0  0  -0.613251  0.426489  -0.099796  0.105445  0  0  0  0  -0  -0  0  0  0  0  0  0  0  0  0 
1702484092.519332000  -0.591385  -0.727339  1.23975  0  0  -0.6147  0.426489  -0.099796  0.105445  0  0  0  0  -0  -0  0  0  0  0  0  0  0  0  0 
1702484092.524332000  -0.589253  -0.727838  1.24027  0  0  -0.616142  0.426489  -0.099796  0.105445  0  0  0  0  -0  -0  0  0  0  0  0  0  0  0  0 
1702484092.529331000  -0.58712  -0.728337  1.2408  0  0  -0.617579  0.426489  -0.099796  0.105445  0  0  0  0  -0  -0  0  0  0  0  0  0  0  0  0 
1702484092.534333000  -0.584988  -0.728836  1.24133  0  0  -0.619009  0.426489  -0.099796  0.105445  0  0  0  0  -0  -0  0  0  0  0  0  0  0  0  0 
1702484092.539332000  -0.582855  -0.729335  1.24185  0  0  -0.620433  0.426489  -0.099796  0.105445  0  0  0  0  -0  -0  0  0  0  0  0  0  0  0  0 
1702484092.544337000  -0.580723  -0.729834  1.24238  0  0  -0.62185  0.426489  -0.099796  0.105445  0  0  0  0  -0  -0  0  0  0  0  0  0  0  0  0 
1702484092.549343000  -0.578591  -0.730333  1.24291  0  0  -0.623262  0.426489  -0.099796  0.105445  0  0  0  0  -0  -0  0  0  0  0  0  0  0  0  0 
1702484092.554335000  -0.576458  -0.730832  1.24344  0  0  -0.624667  0.426489  -0.099796  0.105445  0  0  0  0  -0  -0  0  0  0  0  0  0  0  0  0 
1702484092.559334000  -0.574326  -0.731331  1.24396  0  0  -0.626066  0.426489  -0.099796  0.105445  0  0  0  0  -0  -0  0  0  0  0  0  0  0  0  0 
1702484092.564333000  -0.572193  -0.73183  1.24449  0  0  -0.627458  0.426489  -0.099796  0.105445  0  0  0  0  -0  -0  0  0  0  0  0  0  0  0  0 
1702484092.569332000  -0.570061  -0.732329  1.24502  0  0  -0.628845  0.426489  -0.099796  0.105445  0  0  0  0  -0  -0  0  0  0  0  0  0  0  0  0 
1702484092.574334000  -0.567928  -0.732828  1.24554  0  0  -0.630225  0.426489  -0.099796  0.105445  0  0  0  0  -0  -0  0  0  0  0  0  0  0  0  0 
1702484092.579332000  -0.565796  -0.733327  1.24607  0  0  -0.631599  0.426489  -0.099796  0.105445  0  0  0  0  -0  -0  0  0  0  0  0  0  0  0  0 
1702484092.584333000  -0.563663  -0.733826  1.2466  0  0  -0.632966  0.426489  -0.099796  0.105445  0  0  0  0  -0  -0  0  0  0  0  0  0  0  0  0 
1702484092.589333000  -0.561531  -0.734324  1.24713  0  0  -0.634328  0.426489  -0.099796  0.105445  0  0  0  0  -0  -0  0  0  0  0  0  0  0  0  0 
1702484092.594332000  -0.559399  -0.734823  1.24765  0  0  -0.635683  0.426489  -0.099796  0.105445  0  0  0  0  -0  -0  0  0  0  0  0  0  0  0  0 
1702484092.599332000  -0.557266  -0.735322  1.24818  0  0  -0.637032  0.426489  -0.099796  0.105445  0  0  0  0  -0  -0  0  0  0  0  0  0  0  0  0 
1702484092.604332000  -0.555134  -0.735821  1.24871  0  0  -0.638374  0.426489  -0.099796  0.105445  0  0  0  0  -0  -0  0  0  0  0  0  0  0  0  0 
1702484092.609332000  -0.553001  -0.73632  1.24924  0  0  -0.639711  0.426489  -0.099796  0.105445  0  0  0  0  -0  -0  0  0  0  0  0  0  0  0  0 
1702484092.614331000  -0.550869  -0.736819  1.24976  0  0  -0.641041  0.426489  -0.099796  0.105445  0  0  0  0  -0  -0  0  0  0  0  0  0  0  0  0 
1702484092.619331000  -0.548736  -0.737318  1.25029  0  0  -0.642365  0.426489  -0.099796  0.105445  0  0  0  0  -0  -0  0  0  0  0  0  0  0  0  0 
1702484092.624331000  -0.546604  -0.737817  1.25082  0  0  -0.643682  0.426489  -0.099796  0.105445  0  0  0  0  -0  -0  0  0  0  0  0  0  0  0  0 
1702484092.629331000  -0.544471  -0.738316  1.25134  0  0  -0.644994  0.426489  -0.099796  0.105445  0  0  0  0  -0  -0  0  0  0  0  0  0  0  0  0 
1702484092.634331000  -0.542339  -0.738815  1.25187  0  0  -0.646299  0.426489  -0.099796  0.105445  0  0  0  0  -0  -0  0  0  0  0  0  0  0  0  0 
1702484092.639332000  -0.540207  -0.739314  1.2524  0  0  -0.647598  0.426489  -0.099796  0.105445  0  0  0  0  -0  -0  0  0  0  0  0  0  0  0  0 
1702484092.644332000  -0.538074  -0.739813  1.25293  0  0  -0.64889  0.426489  -0.099796  0.105445  0  0  0  0  -0  -0  0  0  0  0  0  0  0  0  0 
1702484092.649331000  -0.535942  -0.740312  1.25345  0  0  -0.650177  0.426489  -0.099796  0.105445  0  0  0  0  -0  -0  0  0  0  0  0  0  0  0  0 
1702484092.654334000  -0.533809  -0.740811  1.25398  0  0  -0.651457  0.426489  -0.099796  0.105445  0  0  0  0  -0  -0  0  0  0  0  0  0  0  0  0 
1702484092.659331000  -0.531677  -0.74131  1.25451  0  0  -0.652731  0.426489  -0.099796  0.105445  0  0  0  0  -0  -0  0  0  0  0  0  0  0  0  0 
1702484092.664333000  -0.529544  -0.741809  1.25503  0  0  -0.653998  0.426489  -0.099796  0.105445  0  0  0  0  -0  -0  0  0  0  0  0  0  0  0  0 
1702484092.669346000  -0.527412  -0.742308  1.25556  0  0  -0.65526  0.426489  -0.099796  0.105445  0  0  0  0  -0  -0  0  0  0  0  0  0  0  0  0 
1702484092.674333000  -0.52528  -0.742807  1.25609  0  0  -0.656515  0.426489  -0.099796  0.105445  0  0  0  0  -0  -0  0  0  0  0  0  0  0  0  0 
1702484092.679331000  -0.523147  -0.743306  1.25662  0  0  -0.657764  0.426489  -0.099796  0.105445  0  0  0  0  -0  -0  0  0  0  0  0  0  0  0  0 
1702484092.684335000  -0.521015  -0.743805  1.25714  0  0  -0.659006  0.426489  -0.099796  0.105445  0  0  0  0  -0  -0  0  0  0  0  0  0  0  0  0 
1702484092.689331000  -0.518882  -0.744304  1.25767  0  0  -0.660243  0.426489  -0.099796  0.105445  0  0  0  0  -0  -0  0  0  0  0  0  0  0  0  0 
1702484092.694345000  -0.51675  -0.744803  1.2582  0  0  -0.661473  0.426489  -0.099796  0.105445  0  0  0  0  -0  -0  0  0  0  0  0  0  0  0  0 
1702484092.699330000  -0.514617  -0.745302  1.25873  0  0  -0.662697  0.426489  -0.099796  0.105445  0  0  0  0  -0  -0  0  0  0  0  0  0  0  0  0 
1702484092.704332000  -0.512485  -0.745801  1.25925  0  0  -0.663914  0.426489  -0.099796  0.105445  0  0  0  0  -0  -0  0  0  0  0  0  0  0  0  0 
1702484092.709331000  -0.510352  -0.7463  1.25978  0  0  -0.665126  0.426489  -0.099796  0.105445  0  0  0  0  -0  -0  0  0  0  0  0  0  0  0  0 
1702484092.714333000  -0.50822  -0.746799  1.26031  0  0  -0.666331  0.426489  -0.099796  0.105445  0  0  0  0  -0  -0  0  0  0  0  0  0  0  0  0 
1702484092.719333000  -0.506088  -0.747298  1.26083  0  0  -0.66753  0.426489  -0.099796  0.105445  0  0  0  0  -0  -0  0  0  0  0  0  0  0  0  0 
1702484092.724333000  -0.503955  -0.747797  1.26136  0  0  -0.668722  0.426489  -0.099796  0.105445  0  0  0  0  -0  -0  0  0  0  0  0  0  0  0  0 
1702484092.729331000  -0.501823  -0.748296  1.26189  0  0  -0.669908  0.426489  -0.099796  0.105445  0  0  0  0  -0  -0  0  0  0  0  0  0  0  0  0 
1702484092.734346000  -0.49969  -0.748795  1.26242  0  0  -0.671089  0.426489  -0.099796  0.105445  0  0  0  0  -0  -0  0  0  0  0  0  0  0  0  0 
1702484092.739332000  -0.497558  -0.749294  1.26294  0  0  -0.672262  0.426489  -0.099796  0.105445  0  0  0  0  -0  -0  0  0  0  0  0  0  0  0  0 
1702484092.744348000  -0.495425  -0.749793  1.26347  0  0  -0.67343  0.426489  -0.099796  0.105445  0  0  0  0  -0  -0  0  0  0  0  0  0  0  0  0 
1702484092.749336000  -0.493293  -0.750292  1.264  0  0  -0.674591  0.426489  -0.099796  0.105445  0  0  0  0  -0  -0  0  0  0  0  0  0  0  0  0 
1702484092.754332000  -0.49116  -0.750791  1.26452  0  0  -0.675747  0.426489  -0.099796  0.105445  0  0  0  0  -0  -0  0  0  0  0  0  0  0  0  0 
1702484092.759333000  -0.489028  -0.75129  1.26505  0  0  -0.676895  0.426489  -0.099796  0.105445  0  0  0  0  -0  -0  0  0  0  0  0  0  0  0  0 
1702484092.764336000  -0.486896  -0.751789  1.26558  0  0  -0.678038  0.426489  -0.099796  0.105445  0  0  0  0  -0  -0  0  0  0  0  0  0  0  0  0 
1702484092.769332000  -0.484763  -0.752288  1.26611  0  0  -0.679174  0.426489  -0.099796  0.105445  0  0  0  0  -0  -0  0  0  0  0  0  0  0  0  0 
1702484092.774333000  -0.482631  -0.752787  1.26663  0  0  -0.680305  0.426489  -0.099796  0.105445  0  0  0  0  -0  -0  0  0  0  0  0  0  0  0  0 
1702484092.779331000  -0.480498  -0.753286  1.26716  0  0  -0.681428  0.426489  -0.099796  0.105445  0  0  0  0  -0  -0  0  0  0  0  0  0  0  0  0 
1702484092.784348000  -0.478366  -0.753785  1.26769  0  0  -0.682546  0.426489  -0.099796  0.105445  0  0  0  0  -0  -0  0  0  0  0  0  0  0  0  0 
1702484092.789332000  -0.476233  -0.754284  1.26822  0  0  -0.683657  0.426489  -0.099796  0.105445  0  0  0  0  -0  -0  0  0  0  0  0  0  0  0  0 
1702484092.794343000  -0.474101  -0.754783  1.26874  0  0  -0.684763  0.426489  -0.099796  0.105445  0  0  0  0  -0  -0  0  0  0  0  0  0  0  0  0 
1702484092.799332000  -0.471968  -0.755282  1.26927  0  0  -0.685861  0.426489  -0.099796  0.105445  0  0  0  0  -0  -0  0  0  0  0  0  0  0  0  0 
1702484092.804332000  -0.469836  -0.755781  1.2698  0  0  -0.686954  0.426489  -0.099796  0.105445  0  0  0  0  -0  -0  0  0  0  0  0  0  0  0  0 
1702484092.809332000  -0.467704  -0.75628  1.27032  0  0  -0.68804  0.426489  -0.099796  0.105445  0  0  0  0  -0  -0  0  0  0  0  0  0  0  0  0 
1702484092.814331000  -0.465571  -0.756779  1.27085  0  0  -0.689121  0.426489  -0.099796  0.105445  0  0  0  0  -0  -0  0  0  0  0  0  0  0  0  0 
1702484092.819344000  -0.463439  -0.757278  1.27138  0  0  -0.690194  0.426489  -0.099796  0.105445  0  0  0  0  -0  -0  0  0  0  0  0  0  0  0  0 
1702484092.824343000  -0.461306  -0.757777  1.27191  0  0  -0.691262  0.426489  -0.099796  0.105445  0  0  0  0  -0  -0  0  0  0  0  0  0  0  0  0 
1702484092.829332000  -0.459174  -0.758276  1.27243  0  0  -0.692323  0.426489  -0.099796  0.105445  0  0  0  0  -0  -0  0  0  0  0  0  0  0  0  0 
1702484092.834353000  -0.457041  -0.758775  1.27296  0  0  -0.693379  0.426489  -0.099796  0.105445  0  0  0  0  -0  -0  0  0  0  0  0  0  0  0  0 
1702484092.839332000  -0.454909  -0.759273  1.27349  0  0  -0.694427  0.426489  -0.099796  0.105445  0  0  0  0  -0  -0  0  0  0  0  0  0  0  0  0 
1702484092.844333000  -0.452776  -0.759772  1.27401  0  0  -0.69547  0.426489  -0.099796  0.105445  0  0  0  0  -0  -0  0  0  0  0  0  0  0  0  0 
1702484092.849332000  -0.450644  -0.760271  1.27454  0  0  -0.696506  0.426489  -0.099796  0.105445  0  0  0  0  -0  -0  0  0  0  0  0  0  0  0  0 
1702484092.854331000  -0.448512  -0.76077  1.27507  0  0  -0.697537  0.426489  -0.099796  0.105445  0  0  0  0  -0  -0  0  0  0  0  0  0  0  0  0 
1702484092.859339000  -0.446379  -0.761269  1.2756  0  0  -0.69856  0.426489  -0.099796  0.105445  0  0  0  0  -0  -0  0  0  0  0  0  0  0  0  0 
1702484092.864331000  -0.444247  -0.761768  1.27612  0  0  -0.699578  0.426489  -0.099796  0.105445  0  0  0  0  -0  -0  0  0  0  0  0  0  0  0  0 
1702484092.869332000  -0.442114  -0.762267  1.27665  0  0  -0.700589  0.426489  -0.099796  0.105445  0  0  0  0  -0  -0  0  0  0  0  0  0  0  0  0 
1702484092.874331000  -0.439982  -0.762766  1.27718  0  0  -0.701595  0.426489  -0.099796  0.105445  0  0  0  0  -0  -0  0  0  0  0  0  0  0  0  0 
1702484092.879332000  -0.437849  -0.763265  1.27771  0  0  -0.702593  0.426489  -0.099796  0.105445  0  0  0  0  -0  -0  0  0  0  0  0  0  0  0  0 
1702484092.884331000  -0.435717  -0.763764  1.27823  0  0  -0.703586  0.426489  -0.099796  0.105445  0  0  0  0  -0  -0  0  0  0  0  0  0  0  0  0 
1702484092.889331000  -0.433584  -0.764263  1.27876  0  0  -0.704572  0.426489  -0.099796  0.105445  0  0  0  0  -0  -0  0  0  0  0  0  0  0  0  0 
1702484092.894332000  -0.431452  -0.764762  1.27929  0  0  -0.705553  0.426489  -0.099796  0.105445  0  0  0  0  -0  -0  0  0  0  0  0  0  0  0  0 
1702484092.899331000  -0.42932  -0.765261  1.27981  0  0  -0.706526  0.426489  -0.099796  0.105445  0  0  0  0  -0  -0  0  0  0  0  0  0  0  0  0 
1702484092.904331000  -0.427187  -0.76576  1.28034  0  0  -0.707494  0.426489  -0.099796  0.105445  0  0  0  0  -0  -0  0  0  0  0  0  0  0  0  0 
1702484092.909335000  -0.425055  -0.766259  1.28087  0  0  -0.708455  0.426489  -0.099796  0.105445  0  0  0  0  -0  -0  0  0  0  0  0  0  0  0  0 
1702484092.914344000  -0.422922  -0.766758  1.2814  0  0  -0.70941  0.426489  -0.099796  0.105445  0  0  0  0  -0  -0  0  0  0  0  0  0  0  0  0 
1702484092.919331000  -0.42079  -0.767257  1.28192  0  0  -0.710359  0.426489  -0.099796  0.105445  0  0  0  0  -0  -0  0  0  0  0  0  0  0  0  0 
1702484092.924335000  -0.418657  -0.767756  1.28245  0  0  -0.711302  0.426489  -0.099796  0.105445  0  0  0  0  -0  -0  0  0  0  0  0  0  0  0  0 
1702484092.929345000  -0.416525  -0.768255  1.28298  0  0  -0.712238  0.426489  -0.099796  0.105445  0  0  0  0  -0  -0  0  0  0  0  0  0  0  0  0 
1702484092.934331000  -0.414392  -0.768754  1.2835  0  0  -0.713168  0.426489  -0.099796  0.105445  0  0  0  0  -0  -0  0  0  0  0  0  0  0  0  0 
1702484092.939331000  -0.41226  -0.769253  1.28403  0  0  -0.714092  0.426489  -0.099796  0.105445  0  0  0  0  -0  -0  0  0  0  0  0  0  0  0  0 
1702484092.944345000  -0.410128  -0.769752  1.28456  0  0  -0.71501  0.426489  -0.099796  0.105445  0  0  0  0  -0  -0  0  0  0  0  0  0  0  0  0 
1702484092.949343000  -0.407995  -0.770251  1.28509  0  0  -0.715921  0.426489  -0.099796  0.105445  0  0  0  0  -0  -0  0  0  0  0  0  0  0  0  0 
1702484092.954331000  -0.405863  -0.77075  1.28561  0  0  -0.716826  0.426489  -0.099796  0.105445  0  0  0  0  -0  -0  0  0  0  0  0  0  0  0  0 
1702484092.959332000  -0.40373  -0.771249  1.28614  0  0  -0.717725  0.426489  -0.099796  0.105445  0  0  0  0  -0  -0  0  0  0  0  0  0  0  0  0 
1702484092.964342000  -0.401598  -0.771748  1.28667  0  0  -0.718618  0.426489  -0.099796  0.105445  0  0  0  0  -0  -0  0  0  0  0  0  0  0  0  0 
1702484092.969344000  -0.399465  -0.772247  1.2872  0  0  -0.719504  0.426489  -0.099796  0.105445  0  0  0  0  -0  -0  0  0  0  0  0  0  0  0  0 
1702484092.974332000  -0.397333  -0.772746  1.28772  0  0  -0.720384  0.426489  -0.099796  0.105445  0  0  0  0  -0  -0  0  0  0  0  0  0  0  0  0 
1702484092.979331000  -0.3952  -0.773245  1.28825  0  0  -0.721258  0.426489  -0.099796  0.105445  0  0  0  0  -0  -0  0  0  0  0  0  0  0  0  0 
1702484092.984331000  -0.393068  -0.773744  1.28878  0  0  -0.722126  0.426489  -0.099796  0.105445  0  0  0  0  -0  -0  0  0  0  0  0  0  0  0  0 
1702484092.989331000  -0.390936  -0.774243  1.2893  0  0  -0.722987  0.426489  -0.099796  0.105445  0  0  0  0  -0  -0  0  0  0  0  0  0  0  0  0 
1702484092.994331000  -0.388803  -0.774742  1.28983  0  0  -0.723842  0.426489  -0.099796  0.105445  0  0  0  0  -0  -0  0  0  0  0  0  0  0  0  0 
1702484092.999334000  -0.386671  -0.775241  1.29036  0  0  -0.724691  0.426489  -0.099796  0.105445  0  0  0  0  -0  -0  0  0  0  0  0  0  0  0  0 
1702484093.004333000  -0.384538  -0.77574  1.29089  0  0  -0.725534  0.426489  -0.099796  0.105445  0  0  0  0  -0  -0  0  0  0  0  0  0  0  0  0 
1702484093.009332000  -0.382406  -0.776239  1.29141  0  0  -0.72637  0.426489  -0.099796  0.105445  0  0  0  0  -0  -0  0  0  0  0  0  0  0  0  0 
1702484093.014351000  -0.380273  -0.776738  1.29194  0  0  -0.7272  0.426489  -0.099796  0.105445  0  0  0  0  -0  -0  0  0  0  0  0  0  0  0  0 
1702484093.019334000  -0.378141  -0.777237  1.29247  0  0  -0.728024  0.426489  -0.099796  0.105445  0  0  0  0  -0  -0  0  0  0  0  0  0  0  0  0 
1702484093.024333000  -0.376008  -0.777736  1.29299  0  0  -0.728842  0.426489  -0.099796  0.105445  0  0  0  0  -0  -0  0  0  0  0  0  0  0  0  0 
1702484093.029335000  -0.373876  -0.778235  1.29352  0  0  -0.729653  0.426489  -0.099796  0.105445  0  0  0  0  -0  -0  0  0  0  0  0  0  0  0  0 
1702484093.034332000  -0.371744  -0.778734  1.29405  0  0  -0.730458  0.426489  -0.099796  0.105445  0  0  0  0  -0  -0  0  0  0  0  0  0  0  0  0 
1702484093.039332000  -0.369611  -0.779233  1.29458  0  0  -0.731257  0.426489  -0.099796  0.105445  0  0  0  0  -0  -0  0  0  0  0  0  0  0  0  0 
1702484093.044331000  -0.367479  -0.779732  1.2951  0  0  -0.73205  0.426489  -0.099796  0.105445  0  0  0  0  -0  -0  0  0  0  0  0  0  0  0  0 
1702484093.049331000  -0.365346  -0.780231  1.29563  0  0  -0.732836  0.426489  -0.099796  0.105445  0  0  0  0  -0  -0  0  0  0  0  0  0  0  0  0 
1702484093.054333000  -0.363214  -0.78073  1.29616  0  0  -0.733616  0.426489  -0.099796  0.105445  0  0  0  0  -0  -0  0  0  0  0  0  0  0  0  0 
1702484093.059334000  -0.361081  -0.781229  1.29669  0  0  -0.73439  0.426489  -0.099796  0.105445  0  0  0  0  -0  -0  0  0  0  0  0  0  0  0  0 
1702484093.064349000  -0.358949  -0.781728  1.29721  0  0  -0.735158  0.426489  -0.099796  0.105445  0  0  0  0  -0  -0  0  0  0  0  0  0  0  0  0 
1702484093.069334000  -0.356816  -0.782227  1.29774  0  0  -0.735919  0.426489  -0.099796  0.105445  0  0  0  0  -0  -0  0  0  0  0  0  0  0  0  0 
1702484093.074331000  -0.354684  -0.782726  1.29827  0  0  -0.736674  0.426489  -0.099796  0.105445  0  0  0  0  -0  -0  0  0  0  0  0  0  0  0  0 
1702484093.079330000  -0.352552  -0.783225  1.29879  0  0  -0.737423  0.426489  -0.099796  0.105445  0  0  0  0  -0  -0  0  0  0  0  0  0  0  0  0 
1702484093.084331000  -0.350419  -0.783724  1.29932  0  0  -0.738166  0.426489  -0.099796  0.105445  0  0  0  0  -0  -0  0  0  0  0  0  0  0  0  0 
1702484093.089332000  -0.348287  -0.784222  1.29985  0  0  -0.738902  0.426489  -0.099796  0.105445  0  0  0  0  -0  -0  0  0  0  0  0  0  0  0  0 
1702484093.094331000  -0.346154  -0.784721  1.30038  0  0  -0.739632  0.426489  -0.099796  0.105445  0  0  0  0  -0  -0  0  0  0  0  0  0  0  0  0 
1702484093.099333000  -0.344022  -0.78522  1.3009  0  0  -0.740356  0.426489  -0.099796  0.105445  0  0  0  0  -0  -0  0  0  0  0  0  0  0  0  0 
1702484093.104346000  -0.341889  -0.785719  1.30143  0  0  -0.741074  0.426489  -0.099796  0.105445  0  0  0  0  -0  -0  0  0  0  0  0  0  0  0  0 
1702484093.109332000  -0.339757  -0.786218  1.30196  0  0  -0.741785  0.426489  -0.099796  0.105445  0  0  0  0  -0  -0  0  0  0  0  0  0  0  0  0 
1702484093.114332000  -0.337624  -0.786717  1.30249  0  0  -0.74249  0.426489  -0.099796  0.105445  0  0  0  0  -0  -0  0  0  0  0  0  0  0  0  0 
1702484093.119333000  -0.335492  -0.787216  1.30301  0  0  -0.743189  0.426489  -0.099796  0.105445  0  0  0  0  -0  -0  0  0  0  0  0  0  0  0  0 
1702484093.124332000  -0.33336  -0.787715  1.30354  0  0  -0.743882  0.426489  -0.099796  0.105445  0  0  0  0  -0  -0  0  0  0  0  0  0  0  0  0 
1702484093.129332000  -0.331227  -0.788214  1.30407  0  0  -0.744568  0.426489  -0.099796  0.105445  0  0  0  0  -0  -0  0  0  0  0  0  0  0  0  0 
1702484093.134341000  -0.329095  -0.788713  1.30459  0  0  -0.745248  0.426489  -0.099796  0.105445  0  0  0  0  -0  -0  0  0  0  0  0  0  0  0  0 
1702484093.139333000  -0.326962  -0.789212  1.30512  0  0  -0.745922  0.426489  -0.099796  0.105445  0  0  0  0  -0  -0  0  0  0  0  0  0  0  0  0 
1702484093.144332000  -0.32483  -0.789711  1.30565  0  0  -0.74659  0.426489  -0.099796  0.105445  0  0  0  0  -0  -0  0  0  0  0  0  0  0  0  0 
1702484093.149331000  -0.322697  -0.79021  1.30618  0  0  -0.747251  0.426489  -0.099796  0.105445  0  0  0  0  -0  -0  0  0  0  0  0  0  0  0  0 
1702484093.154344000  -0.320565  -0.790709  1.3067  0  0  -0.747906  0.426489  -0.099796  0.105445  0  0  0  0  -0  -0  0  0  0  0  0  0  0  0  0 
1702484093.159333000  -0.318432  -0.791208  1.30723  0  0  -0.748555  0.426489  -0.099796  0.105445  0  0  0  0  -0  -0  0  0  0  0  0  0  0  0  0 
1702484093.164331000  -0.3163  -0.791707  1.30776  0  0  -0.749198  0.426489  -0.099796  0.105445  0  0  0  0  -0  -0  0  0  0  0  0  0  0  0  0 
1702484093.169334000  -0.314168  -0.792206  1.30828  0  0  -0.749834  0.426489  -0.099796  0.105445  0  0  0  0  -0  -0  0  0  0  0  0  0  0  0  0 
1702484093.174332000  -0.312035  -0.792705  1.30881  0  0  -0.750464  0.426489  -0.099796  0.105445  0  0  0  0  -0  -0  0  0  0  0  0  0  0  0  0 
1702484093.179344000  -0.309903  -0.793204  1.30934  0  0  -0.751088  0.426489  -0.099796  0.105445  0  0  0  0  -0  -0  0  0  0  0  0  0  0  0  0 
1702484093.184332000  -0.30777  -0.793703  1.30987  0  0  -0.751706  0.426489  -0.099796  0.105445  0  0  0  0  -0  -0  0  0  0  0  0  0  0  0  0 
1702484093.189332000  -0.305638  -0.794202  1.31039  0  0  -0.752317  0.426489  -0.099796  0.105445  0  0  0  0  -0  -0  0  0  0  0  0  0  0  0  0 
1702484093.194331000  -0.303505  -0.794701  1.31092  0  0  -0.752922  0.426489  -0.099796  0.105445  0  0  0  0  -0  -0  0  0  0  0  0  0  0  0  0 
1702484093.199332000  -0.301373  -0.7952  1.31145  0  0  -0.753521  0.426489  -0.099796  0.105445  0  0  0  0  -0  -0  0  0  0  0  0  0  0  0  0 
1702484093.204331000  -0.29924  -0.795699  1.31198  0  0  -0.754114  0.426489  -0.099796  0.105445  0  0  0  0  -0  -0  0  0  0  0  0  0  0  0  0 
1702484093.209331000  -0.297108  -0.796198  1.3125  0  0  -0.7547  0.426489  -0.099796  0.105445  0  0  0  0  -0  -0  0  0  0  0  0  0  0  0  0 
1702484093.214331000  -0.294976  -0.796697  1.31303  0  0  -0.75528  0.426489  -0.099796  0.105445  0  0  0  0  -0  -0  0  0  0  0  0  0  0  0  0 
1702484093.219333000  -0.292843  -0.797196  1.31356  0  0  -0.755854  0.426489  -0.099796  0.105445  0  0  0  0  -0  -0  0  0  0  0  0  0  0  0  0 
1702484093.224331000  -0.290711  -0.797695  1.31408  0  0  -0.756422  0.426489  -0.099796  0.105445  0  0  0  0  -0  -0  0  0  0  0  0  0  0  0  0 
1702484093.229332000  -0.288578  -0.798194  1.31461  0  0  -0.756983  0.426489  -0.099796  0.105445  0  0  0  0  -0  -0  0  0  0  0  0  0  0  0  0 
1702484093.234345000  -0.286446  -0.798693  1.31514  0  0  -0.757538  0.426489  -0.099796  0.105445  0  0  0  0  -0  -0  0  0  0  0  0  0  0  0  0 
1702484093.239333000  -0.284313  -0.799192  1.31567  0  0  -0.758087  0.426489  -0.099796  0.105445  0  0  0  0  -0  -0  0  0  0  0  0  0  0  0  0 
1702484093.244332000  -0.282181  -0.799691  1.31619  0  0  -0.75863  0.426489  -0.099796  0.105445  0  0  0  0  -0  -0  0  0  0  0  0  0  0  0  0 
1702484093.249331000  -0.280048  -0.80019  1.31672  0  0  -0.759166  0.426489  -0.099796  0.105445  0  0  0  0  -0  -0  0  0  0  0  0  0  0  0  0 
1702484093.254344000  -0.277916  -0.800689  1.31725  0  0  -0.759696  0.426489  -0.099796  0.105445  0  0  0  0  -0  -0  0  0  0  0  0  0  0  0  0 
1702484093.259333000  -0.275784  -0.801188  1.31777  0  0  -0.76022  0.426489  -0.099796  0.105445  0  0  0  0  -0  -0  0  0  0  0  0  0  0  0  0 
1702484093.264352000  -0.273651  -0.801687  1.3183  0  0  -0.760738  0.426489  -0.099796  0.105445  0  0  0  0  -0  -0  0  0  0  0  0  0  0  0  0 
1702484093.269335000  -0.271519  -0.802186  1.31883  0  0  -0.761249  0.426489  -0.099796  0.105445  0  0  0  0  -0  -0  0  0  0  0  0  0  0  0  0 
1702484093.274349000  -0.269386  -0.802685  1.31936  0  0  -0.761754  0.426489  -0.099796  0.105445  0  0  0  0  -0  -0  0  0  0  0  0  0  0  0  0 
1702484093.279335000  -0.267254  -0.803184  1.31988  0  0  -0.762253  0.426489  -0.099796  0.105445  0  0  0  0  -0  -0  0  0  0  0  0  0  0  0  0 
1702484093.284333000  -0.265121  -0.803683  1.32041  0  0  -0.762746  0.426489  -0.099796  0.105445  0  0  0  0  -0  -0  0  0  0  0  0  0  0  0  0 
1702484093.289334000  -0.262989  -0.804182  1.32094  0  0  -0.763232  0.426489  -0.099796  0.105445  0  0  0  0  -0  -0  0  0  0  0  0  0  0  0  0 
1702484093.294343000  -0.260856  -0.804681  1.32147  0  0  -0.763712  0.426489  -0.099796  0.105445  0  0  0  0  -0  -0  0  0  0  0  0  0  0  0  0 
1702484093.299332000  -0.258724  -0.80518  1.32199  0  0  -0.764186  0.426489  -0.099796  0.105445  0  0  0  0  -0  -0  0  0  0  0  0  0  0  0  0 
1702484093.304331000  -0.256592  -0.805679  1.32252  0  0  -0.764654  0.426489  -0.099796  0.105445  0  0  0  0  -0  -0  0  0  0  0  0  0  0  0  0 
1702484093.309332000  -0.254459  -0.806178  1.32305  0  0  -0.765115  0.426489  -0.099796  0.105445  0  0  0  0  -0  -0  0  0  0  0  0  0  0  0  0 
1702484093.314331000  -0.252327  -0.806677  1.32357  0  0  -0.76557  0.426489  -0.099796  0.105445  0  0  0  0  -0  -0  0  0  0  0  0  0  0  0  0 
1702484093.319341000  -0.250194  -0.807176  1.3241  0  0  -0.766019  0.426489  -0.099796  0.105445  0  0  0  0  -0  -1.8e-05  0  0  0  0  0  0  0  0  0 
1702484093.324332000  -0.248062  -0.807675  1.32463  0  0  -0.766462  0.426489  -0.099796  0.105444  0  0  0  0  -0  -0.0005573  0  0  0  0  0  0  0  0  0 
1702484093.329333000  -0.245929  -0.808174  1.32516  0  0  -0.766898  0.426489  -0.0997959  0.105438  0  0  0  0  8.81e-05  -0.0018466  0  0  0  0  0  0  0  0  0 
1702484093.334332000  -0.243797  -0.808673  1.32568  0  0  -0.767328  0.426489  -0.0997939  0.105424  0  0  0  0  0.0008265  -0.0038859  0  0  0  0  0  0  0  0  0 
1702484093.339332000  -0.241664  -0.809171  1.32621  0  0  -0.767752  0.426489  -0.0997864  0.105398  0  0  0  0  0.0023149  -0.0066752  0  0  0  0  0  0  0  0  0 
1702484093.344332000  -0.239532  -0.80967  1.32674  0  0  -0.76817  0.426489  -0.0997695  0.105356  0  0  0  0  0.0045534  -0.0102146  0  0  0  0  0  0  0  0  0 
1702484093.349335000  -0.2374  -0.810169  1.32726  0  0  -0.768581  0.426489  -0.0997396  0.105295  0  0  0  0  0.0075418  -0.0145039  0  0  0  0  0  0  0  0  0 
1702484093.354340000  -0.235267  -0.810668  1.32779  0  0  -0.768986  0.426489  -0.0996929  0.10521  0  0  0  0  0.0112803  -0.0195432  0  0  0  0  0  0  0  0  0 
1702484093.359334000  -0.233135  -0.811166  1.32832  0  0  -0.769385  0.426489  -0.0996256  0.105098  0  0  0  0  0.0157687  -0.0253325  0  0  0  0  0  0  0  0  0 
1702484093.364358000  -0.231002  -0.811664  1.32884  0  0  -0.769778  0.426489  -0.0995339  0.104956  0  0  0  0  0.0210072  -0.0318718  0  0  0  0  0  0  0  0  0 
1702484093.369333000  -0.22887  -0.812161  1.32937  0  0  -0.770164  0.426489  -0.0994142  0.104778  0  0  0  0  0.0269956  -0.0391611  0  0  0  0  0  0  0  0  0 
1702484093.374332000  -0.226737  -0.812658  1.32989  0  0  -0.770544  0.426489  -0.0992627  0.104563  0  0  0  2.94e-05  0.033734  -0.0472004  0  0  0  0  0  0  0  0  0 
1702484093.379339000  -0.224605  -0.813154  1.33041  0  0  -0.770918  0.42649  -0.0990757  0.104305  0  0  0  0.0006144  0.0412225  -0.0559897  0  0  0  0  0  0  0  0  0 
1702484093.384333000  -0.222472  -0.813649  1.33093  0  0  -0.771286  0.426496  -0.0988493  0.104002  0  0  0  0.0019494  0.0494609  -0.0655291  0  0  0  0  0  0  0  0  0 
1702484093.389332000  -0.22034  -0.814142  1.33145  0  0  -0.771647  0.426511  -0.0985798  0.103648  0  0  0  0.0040344  0.0584494  -0.0758184  0  0  0  0  0  0  0  0  0 
1702484093.394331000  -0.218207  -0.814634  1.33197  0  0  -0.772002  0.426538  -0.0982635  0.103242  0  0  0  0.0068695  0.0681878  -0.0868577  0  0  0  0  0  0  0  0  0 
1702484093.399332000  -0.216074  -0.815125  1.33248  0  0  -0.772351  0.426581  -0.0978967  0.102779  0  0  0  0.0104545  0.0786762  -0.098647  0  0  0  0  0  0  0  0  0 
1702484093.404332000  -0.213941  -0.815613  1.333  0  0  -0.772694  0.426644  -0.0974755  0.102254  0  0  0  0.0147895  0.0899147  -0.111186  0  0  0  0  0  0  0  0  0 
1702484093.409332000  -0.211808  -0.8161  1.33351  0  0  -0.77303  0.42673  -0.0969963  0.101666  0  0  0  0.0198745  0.101903  -0.124476  0  0  0  0  0  0  0  0  0 
1702484093.414346000  -0.209674  -0.816583  1.33401  0  0  -0.77336  0.426844  -0.0964552  0.101008  0  0  0  0.0257095  0.114642  -0.138515  0  0  0  0  0  0  0  0  0 
1702484093.419346000  -0.207539  -0.817064  1.33452  0  0  -0.773684  0.426988  -0.0958486  0.100279  0  0  0  0.0322945  0.12813  -0.153304  0  0  0  0  0  0  0  0  0 
1702484093.424347000  -0.205404  -0.817542  1.33501  0  0  -0.774002  0.427168  -0.0951727  0.0994741  0  0  0  0.0396295  0.142368  -0.168844  0  0  0  0  0  0  0  0  0 
1702484093.429348000  -0.203268  -0.818016  1.33551  0  0  -0.774313  0.427386  -0.0944237  0.0985894  0  0  0  0.0477145  0.157357  -0.185133  0  0  0  0  0  0  0  0  0 
1702484093.434332000  -0.20113  -0.818486  1.336  0  0  -0.774618  0.427646  -0.0935979  0.0976215  0  0  0  0.0565496  0.173095  -0.202172  0  0  0  0  0  0  0  0  0 
1702484093.439333000  -0.198991  -0.818951  1.33649  0  0  -0.774917  0.427953  -0.0926915  0.0965665  0  0  0  0.0661346  0.189584  -0.219956  0  0  0  0  0  0  0  0  0 
1702484093.444345000  -0.196851  -0.819412  1.33697  0  0  -0.77521  0.428309  -0.0917008  0.0954222  0  0  0  0.0764696  0.206822  -0.23762  0  0  0  0  0  0  0  0  0 
1702484093.449343000  -0.194708  -0.819868  1.33744  0  0  -0.775496  0.428719  -0.0906226  0.0941915  0  0  0  0.0875546  0.224345  -0.254534  0  0  0  0  0  0  0  0  0 
1702484093.454333000  -0.192563  -0.820319  1.33791  0  0  -0.775776  0.429186  -0.0894586  0.0928781  0  0  0  0.0993896  0.241151  -0.270698  0  0  0  0  0  0  0  0  0 
1702484093.459332000  -0.190416  -0.820763  1.33837  0  0  -0.77605  0.429714  -0.0882123  0.0914858  0  0  0  0.111975  0.257207  -0.286112  0  0  0  0  0  0  0  0  0 
1702484093.464331000  -0.188266  -0.821201  1.33882  0  0  -0.776318  0.430307  -0.0868877  0.0900183  0  0  0  0.12531  0.272514  -0.300775  0  0  0  0  0  0  0  0  0 
1702484093.469332000  -0.186113  -0.821631  1.33927  0  0  -0.776579  0.430968  -0.0854885  0.0884793  0  0  0  0.139395  0.28707  -0.314689  0  0  0  0  0  0  0  0  0 
1702484093.474333000  -0.183956  -0.822055  1.33971  0  0  -0.776834  0.431702  -0.0840183  0.0868726  0  0  0  0.15423  0.300876  -0.327853  0  0  0  0  0  0  0  0  0 
1702484093.479333000  -0.181796  -0.822472  1.34014  0  0  -0.777083  0.432512  -0.0824809  0.085202  0  0  0  0.169815  0.313933  -0.340267  0  0  0  0  0  0  0  0  0 
1702484093.484333000  -0.179631  -0.82288  1.34056  0  0  -0.777326  0.4334  -0.0808802  0.0834712  0  0  0  0.18557  0.326239  -0.351931  0  0  0  0  0  0  0  0  0 
1702484093.489333000  -0.177462  -0.82328  1.34097  0  0  -0.777562  0.434366  -0.0792198  0.0816839  0  0  0  0.200587  0.337795  -0.362845  0  0  0  0  0  0  0  0  0 
1702484093.494332000  -0.175287  -0.823672  1.34138  0  0  -0.777792  0.435405  -0.0775035  0.079844  0  0  0  0.214854  0.348601  -0.373009  0  0  0  0  0  0  0  0  0 
1702484093.499334000  -0.173107  -0.824055  1.34177  0  0  -0.778016  0.436513  -0.075735  0.0779551  0  0  0  0.22837  0.358658  -0.382422  0  0  0  0  0  0  0  0  0 
1702484093.504337000  -0.170922  -0.824429  1.34216  0  0  -0.778234  0.437687  -0.0739182  0.076021  0  0  0  0.241137  0.367964  -0.391086  0  0  0  0  0  0  0  0  0 
1702484093.509333000  -0.16873  -0.824794  1.34253  0  0  -0.778445  0.438923  -0.0720567  0.0740455  0  0  0  0.253154  0.37652  -0.399  0  0  0  0  0  0  0  0  0 
1702484093.514334000  -0.166533  -0.82515  1.3429  0  0  -0.77865  0.440218  -0.0701542  0.0720323  0  0  0  0.26442  0.384327  -0.406164  0  0  0  0  0  0  0  0  0 
1702484093.519334000  -0.164328  -0.825496  1.34325  0  0  -0.778849  0.441566  -0.0682146  0.0699851  0  0  0  0.274937  0.391383  -0.412578  0  0  0  0  0  0  0  0  0 
1702484093.524331000  -0.162117  -0.825832  1.3436  0  0  -0.779042  0.442966  -0.0662416  0.0679077  0  0  0  0.284704  0.397689  -0.418242  0  0  0  0  0  0  0  0  0 
1702484093.529331000  -0.159898  -0.826158  1.34393  0  0  -0.779228  0.444412  -0.064239  0.0658039  0  0  0  0.29372  0.403245  -0.423156  0  0  0  0  0  0  0  0  0 

1702484093.564355000  -0.144154  -0.828154  1.34597  0  0  -0.780358  0.455537  -0.0497051  0.0506519  0  0  0  0.335837  0.421139  -0.436552  0  0  0  0  0  0  0  0  0 
1702484093.569334000  -0.141872  -0.828397  1.34622  0  0  -0.780494  0.457224  -0.0476002  0.0484715  0  0  0  0.338854  0.420696  -0.435466  0  0  0  0  0  0  0  0  0 
1702484093.574333000  -0.139581  -0.82863  1.34645  0  0  -0.780624  0.458924  -0.0454994  0.0462984  0  0  0  0.34112  0.419502  -0.43363  0  0  0  0  0  0  0  0  0 
1702484093.579338000  -0.137283  -0.828852  1.34668  0  0  -0.780748  0.460634  -0.0434064  0.0441365  0  0  0  0.342637  0.417558  -0.431044  0  0  0  0  0  0  0  0  0 
1702484093.584331000  -0.134975  -0.829064  1.3469  0  0  -0.780866  0.462349  -0.041325  0.0419893  0  0  0  0.343404  0.414865  -0.427708  0  0  0  0  0  0  0  0  0 
1702484093.589332000  -0.132659  -0.829266  1.3471  0  0  -0.780978  0.464066  -0.039259  0.0398606  0  0  0  0.34342  0.411421  -0.423622  0  0  0  0  0  0  0  0  0 
1702484093.594344000  -0.130334  -0.829457  1.34729  0  0  -0.781084  0.465782  -0.0372121  0.0377543  0  0  0  0.342687  0.407227  -0.418786  0  0  0  0  0  0  0  0  0 
1702484093.599331000  -0.128001  -0.829638  1.34748  0  0  -0.781185  0.467492  -0.035188  0.035674  0  0  0  0.341204  0.402283  -0.413199  0  0  0  0  0  0  0  0  0 
1702484093.604332000  -0.125659  -0.829809  1.34765  0  0  -0.781279  0.469193  -0.0331905  0.0336235  0  0  0  0.33897  0.39659  -0.406863  0  0  0  0  0  0  0  0  0 
1702484093.609331000  -0.123309  -0.82997  1.34781  0  0  -0.781368  0.470881  -0.0312233  0.0316066  0  0  0  0.335987  0.390146  -0.399777  0  0  0  0  0  0  0  0  0 
1702484093.614333000  -0.120951  -0.830121  1.34797  0  0  -0.781451  0.472551  -0.0292903  0.029627  0  0  0  0.332254  0.382952  -0.391941  0  0  0  0  0  0  0  0  0 
1702484093.619331000  -0.118584  -0.830263  1.34811  0  0  -0.781528  0.474202  -0.0273951  0.0276885  0  0  0  0.32777  0.375009  -0.383355  0  0  0  0  0  0  0  0  0 
1702484093.624345000  -0.116209  -0.830395  1.34824  0  0  -0.781601  0.475828  -0.0255414  0.0257947  0  0  0  0.322537  0.366315  -0.374019  0  0  0  0  0  0  0  0  0 
1702484093.629331000  -0.113826  -0.830518  1.34837  0  0  -0.781668  0.477426  -0.0237332  0.0239495  0  0  0  0.316554  0.356871  -0.363933  0  0  0  0  0  0  0  0  0 
1702484093.634331000  -0.111435  -0.830632  1.34848  0  0  -0.78173  0.478992  -0.021974  0.0221567  0  0  0  0.30982  0.346677  -0.353096  0  0  0  0  0  0  0  0  0 
1702484093.639334000  -0.109036  -0.830738  1.34859  0  0  -0.781788  0.480523  -0.0202676  0.0204198  0  0  0  0.302337  0.335734  -0.34151  0  0  0  0  0  0  0  0  0 
1702484093.644333000  -0.106629  -0.830835  1.34869  0  0  -0.78184  0.482014  -0.0186179  0.0187428  0  0  0  0.294104  0.32404  -0.329174  0  0  0  0  0  0  0  0  0 
1702484093.649332000  -0.104216  -0.830924  1.34878  0  0  -0.781888  0.483463  -0.0170285  0.0171293  0  0  0  0.28512  0.311596  -0.316088  0  0  0  0  0  0  0  0  0 
1702484093.654333000  -0.101795  -0.831006  1.34886  0  0  -0.781932  0.484864  -0.0155032  0.0155832  0  0  0  0.275387  0.298403  -0.302252  0  0  0  0  0  0  0  0  0 
1702484093.659332000  -0.0993671  -0.831079  1.34893  0  0  -0.781972  0.486215  -0.0140457  0.0141081  0  0  0  0.264904  0.284459  -0.287666  0  0  0  0  0  0  0  0  0 
1702484093.664332000  -0.0969328  -0.831146  1.349  0  0  -0.782008  0.487512  -0.0126598  0.0127078  0  0  0  0.25367  0.269765  -0.272329  0  0  0  0  0  0  0  0  0 
1702484093.669332000  -0.0944921  -0.831206  1.34906  0  0  -0.78204  0.488751  -0.0113493  0.011386  0  0  0  0.241687  0.254321  -0.256243  0  0  0  0  0  0  0  0  0 
1702484093.674332000  -0.0920454  -0.83126  1.34911  0  0  -0.782069  0.489928  -0.0101179  0.0101466  0  0  0  0.228954  0.238128  -0.239407  0  0  0  0  0  0  0  0  0 
1702484093.679333000  -0.0895929  -0.831307  1.34916  0  0  -0.782094  0.491039  -0.0089693  0.0089932  0  0  0  0.21547  0.221184  -0.221821  0  0  0  0  0  0  0  0  0 
1702484093.684331000  -0.0871351  -0.83135  1.3492  0  0  -0.782117  0.492081  -0.0079072  0.007929  0  0  0  0.201237  0.203607  -0.20398  0  0  0  0  0  0  0  0  0 
1702484093.689345000  -0.0846722  -0.831387  1.34924  0  0  -0.782136  0.49305  -0.0069322  0.0069521  0  0  0  0.186254  0.186506  -0.186863  0  0  0  0  0  0  0  0  0 
1702484093.694351000  -0.0822047  -0.831419  1.34927  0  0  -0.782154  0.493942  -0.0060409  0.0060591  0  0  0  0.170525  0.170155  -0.170496  0  0  0  0  0  0  0  0  0 
1702484093.699331000  -0.0797329  -0.831447  1.3493  0  0  -0.782169  0.494756  -0.0052294  0.0052459  0  0  0  0.154906  0.154554  -0.154879  0  0  0  0  0  0  0  0  0 
1702484093.704331000  -0.0772573  -0.831471  1.34933  0  0  -0.782182  0.495493  -0.0044941  0.004509  0  0  0  0.140038  0.139703  -0.140012  0  0  0  0  0  0  0  0  0 
1702484093.709331000  -0.0747781  -0.831492  1.34935  0  0  -0.782193  0.496157  -0.0038312  0.0038446  0  0  0  0.12592  0.125602  -0.125895  0  0  0  0  0  0  0  0  0 
1702484093.714344000  -0.0722958  -0.83151  1.34937  0  0  -0.782202  0.496753  -0.0032368  0.0032488  0  0  0  0.112551  0.112251  -0.112528  0  0  0  0  0  0  0  0  0 
1702484093.719331000  -0.0698107  -0.831525  1.34938  0  0  -0.78221  0.497284  -0.0027074  0.002718  0  0  0  0.0999329  0.0996503  -0.0999112  0  0  0  0  0  0  0  0  0 
1702484093.724331000  -0.0673231  -0.831537  1.34939  0  0  -0.782217  0.497754  -0.0022391  0.0022485  0  0  0  0.0880645  0.0877993  -0.0880442  0  0  0  0  0  0  0  0  0 
1702484093.729331000  -0.0648333  -0.831547  1.3494  0  0  -0.782222  0.498166  -0.0018281  0.0018363  0  0  0  0.0769462  0.0766983  -0.0769272  0  0  0  0  0  0  0  0  0 
1702484093.734331000  -0.0623415  -0.831555  1.34941  0  0  -0.782227  0.498524  -0.0014708  0.0014779  0  0  0  0.0665779  0.0663473  -0.0665602  0  0  0  0  0  0  0  0  0 
1702484093.739331000  -0.0598481  -0.831562  1.34942  0  0  -0.78223  0.498833  -0.0011634  0.0011695  0  0  0  0.0569595  0.0567462  -0.0569432  0  0  0  0  0  0  0  0  0 
1702484093.744330000  -0.0573533  -0.831567  1.34942  0  0  -0.782233  0.499095  -0.0009021  0.0009073  0  0  0  0.0480912  0.0478952  -0.0480762  0  0  0  0  0  0  0  0  0 
1702484093.749337000  -0.0548572  -0.831571  1.34943  0  0  -0.782235  0.499315  -0.0006832  0.0006875  0  0  0  0.0399729  0.0397942  -0.0399592  0  0  0  0  0  0  0  0  0 
1702484093.754348000  -0.0523602  -0.831574  1.34943  0  0  -0.782237  0.499496  -0.0005029  0.0005064  0  0  0  0.0326045  0.0324432  -0.0325922  0  0  0  0  0  0  0  0  0 
1702484093.759332000  -0.0498623  -0.831576  1.34943  0  0  -0.782238  0.499642  -0.0003575  0.0003603  0  0  0  0.0259862  0.0258422  -0.0259751  0  0  0  0  0  0  0  0  0 
1702484093.764344000  -0.0473638  -0.831578  1.34943  0  0  -0.782239  0.499757  -0.0002433  0.0002454  0  0  0  0.0201178  0.0199912  -0.0201081  0  0  0  0  0  0  0  0  0 
1702484093.769345000  -0.0448648  -0.831579  1.34943  0  0  -0.782239  0.499845  -0.0001564  0.000158  0  0  0  0.0149995  0.0148901  -0.0149911  0  0  0  0  0  0  0  0  0 
1702484093.774331000  -0.0423654  -0.831579  1.34943  0  0  -0.782239  0.499909  -9.31e-05  9.42e-05  0  0  0  0.0106312  0.0105391  -0.0106241  0  0  0  0  0  0  0  0  0 
1702484093.779333000  -0.0398657  -0.83158  1.34944  0  0  -0.78224  0.499952  -4.97e-05  5.05e-05  0  0  0  0.0070128  0.0069381  -0.0070071  0  0  0  0  0  0  0  0  0 
1702484093.784331000  -0.0373659  -0.83158  1.34944  0  0  -0.78224  0.49998  -2.25e-05  2.29e-05  0  0  0  0.0041445  0.0040871  -0.0041401  0  0  0  0  0  0  0  0  0 
1702484093.789332000  -0.034866  -0.83158  1.34944  0  0  -0.78224  0.499995  -7.6e-06  7.8e-06  0  0  0  0.0020261  0.0019861  -0.0020231  0  0  0  0  0  0  0  0  0 
1702484093.794345000  -0.032366  -0.83158  1.34944  0  0  -0.78224  0.500002  -1.4e-06  1.4e-06  0  0  0  0.0006578  0.0006351  -0.0006561  0  0  0  0  0  0  0  0  0 
1702484093.799334000  -0.0298659  -0.83158  1.34944  0  0  -0.78224  0.500003  -0  0  0  0  0  3.95e-05  3.41e-05  -3.9e-05  0  0  0  0  0  0  0  0  0 
1702484093.804332000  -0.0290575  -0.831429  1.3494  0  0  -0.78224  0.499997  0  0  0  0  0  0  0  0  0  0  0  0  0  0  0  0  0 
1702484093.809332000  -0.0265575  -0.831429  1.3494  0  0  -0.78224  0.499998  0  6e-07  0  0  0  0.000375  0  0.000375  0  0  0  0  0  0  0  0  0 
1702484093.814332000  -0.0240575  -0.831429  1.3494  0  0  -0.78224  0.500002  0  5e-06  0  0  0  0.0015  0  0.0015  0  0  0  0  0  0  0  0  0 
1702484093.819332000  -0.0215575  -0.831429  1.3494  0  0  -0.78224  0.500014  0  1.69e-05  0  0  0  0.003375  0  0.003375  0  0  0  0  0  0  0  0  0 
1702484093.824346000  -0.0190574  -0.831429  1.3494  0  0  -0.78224  0.500037  0  4e-05  0  0  0  0.006  0  0.006  0  0  0  0  0  0  0  0  0 
1702484093.829332000  -0.0165571  -0.831429  1.3494  0  0  -0.78224  0.500076  0  7.81e-05  0  0  0  0.009375  0  0.009375  0  0  0  0  0  0  0  0  0 
1702484093.834345000  -0.0140566  -0.831429  1.3494  0  0  -0.78224  0.500132  0  0.000135  0  0  0  0.0135  0  0.0135  0  0  0  0  0  0  0  0  0 
1702484093.839336000  -0.0115557  -0.831429  1.3494  0  0  -0.78224  0.500212  0  0.0002144  0  0  0  0.018375  0  0.018375  0  0  0  0  0  0  0  0  0 
1702484093.844332000  -0.0090544  -0.831429  1.3494  0  0  -0.78224  0.500317  0  0.00032  0  0  0  0.024  0  0.024  0  0  0  0  0  0  0  0  0 
1702484093.849331000  -0.0065525  -0.831429  1.34941  0  0  -0.78224  0.500453  0  0.0004556  0  0  0  0.030375  0  0.030375  0  0  0  0  0  0  0  0  0 
1702484093.854332000  -0.0040498  -0.831429  1.34941  0  0  -0.78224  0.500622  0  0.000625  0  0  0  0.0375  0  0.0375  0  0  0  0  0  0  0  0  0 
1702484093.859332000  -0.0015462  -0.831429  1.34941  0  0  -0.78224  0.500829  0  0.0008319  0  0  0  0.045375  0  0.045375  0  0  0  0  0  0  0  0  0 
1702484093.864331000  0.0009585  -0.831429  1.34942  0  0  -0.78224  0.501077  0  0.00108  0  0  0  0.054  0  0.054  0  0  0  0  0  0  0  0  0 
1702484093.869332000  0.0034646  -0.831429  1.34942  0  0  -0.78224  0.501371  0  0.0013731  0  0  0  0.063375  0  0.063375  0  0  0  0  0  0  0  0  0 
1702484093.874331000  0.0059723  -0.831429  1.34943  0  0  -0.78224  0.501712  0  0.001715  0  0  0  0.0735  0  0.0735  0  0  0  0  0  0  0  0  0 
1702484093.879332000  0.0084819  -0.831429  1.34944  0  0  -0.78224  0.502107  0  0.0021094  0  0  0  0.084375  0  0.084375  0  0  0  0  0  0  0  0  0 
1702484093.884334000  0.0109935  -0.831429  1.34945  0  0  -0.78224  0.502557  0  0.00256  0  0  0  0.096  0  0.096  0  0  0  0  0  0  0  0  0 
1702484093.889332000  0.0135075  -0.831429  1.34947  0  0  -0.78224  0.503068  0  0.0030706  0  0  0  0.108005  0  0.108375  0  0  0  0  0  0  0  0  0 
1702484093.894331000  0.0160243  -0.831429  1.34948  0  0  -0.78224  0.503636  0  0.003645  0  0  0  0.119327  0  0.1215  0  0  0  0  0  0  0  0  0 
1702484093.899333000  0.018544  -0.831429  1.3495  0  0  -0.78224  0.50426  0  0.0042869  0  0  0  0.129899  0  0.135375  0  0  0  0  0  0  0  0  0 
1702484093.904345000  0.0210669  -0.831429  1.34953  0  0  -0.78224  0.504934  0  0.005  0  0  0  0.139721  0  0.15  0  0  0  0  0  0  0  0  0 
1702484093.909333000  0.0235934  -0.831429  1.34955  0  0  -0.78224  0.505656  0  0.0057881  0  0  0  0.148793  0  0.165375  0  0  0  0  0  0  0  0  0 
1702484093.914337000  0.0261236  -0.831429  1.34958  0  0  -0.78224  0.506421  0  0.006655  0  0  0  0.157115  0  0.1815  0  0  0  0  0  0  0  0  0 
1702484093.919333000  0.0286577  -0.831429  1.34962  0  0  -0.78224  0.507226  0  0.0076044  0  0  0  0.164687  0  0.198375  0  0  0  0  0  0  0  0  0 
1702484093.924331000  0.0311959  -0.831429  1.34966  0  0  -0.78224  0.508066  0  0.00864  0  0  0  0.171509  0  0.216  0  0  0  0  0  0  0  0  0 
1702484093.929334000  0.0337384  -0.831429  1.34971  0  0  -0.78224  0.508939  0  0.0097656  0  0  0  0.177581  0  0.234375  0  0  0  0  0  0  0  0  0 
1702484093.934341000  0.0362853  -0.831429  1.34976  0  0  -0.78224  0.509841  0  0.010985  0  0  0  0.182903  0  0.2535  0  0  0  0  0  0  0  0  0 
1702484093.939332000  0.0388368  -0.831429  1.34982  0  0  -0.78224  0.510767  0  0.0123019  0  0  0  0.187475  0  0.273375  0  0  0  0  0  0  0  0  0 
1702484093.944332000  0.041393  -0.831429  1.34988  0  0  -0.78224  0.511714  0  0.01372  0  0  0  0.191298  0  0.294  0  0  0  0  0  0  0  0  0 
1702484093.949333000  0.043954  -0.831429  1.34995  0  0  -0.78224  0.512679  0  0.0152431  0  0  0  0.19437  0  0.315375  0  0  0  0  0  0  0  0  0 
1702484093.954342000  0.0465199  -0.831429  1.35003  0  0  -0.78224  0.513657  0  0.016875  0  0  0  0.196692  0  0.3375  0  0  0  0  0  0  0  0  0 
1702484093.959331000  0.0490906  -0.831429  1.35012  0  0  -0.78224  0.514645  0  0.0186194  0  0  0  0.198264  0  0.360375  0  0  0  0  0  0  0  0  0 
1702484093.964332000  0.0516663  -0.831429  1.35022  0  0  -0.78224  0.515638  0  0.02048  0  0  0  0.199086  0  0.384  0  0  0  0  0  0  0  0  0 
