# pom logged on Wed Dec 13 17:14:49 2023
#
# decimation 5
# process model constant_acceleration
# process noise acc 200 m/s³, aacc 50 rad/s²
# magnetic field X 513185 µT, Y -8834.65 µT, Z -858232 µT
#
ts i posp attp velp avelp accp x y z roll pitch yaw vx vy vz wx wy wz ax ay az sx2 sy2 sz2 sr2 sp2 sh2 svx2 svy2 svz2 swx2 swy2 swz2 sax2 say2 saz2
1702484089.985108000 0 1 1 1 1 1 -1.51063 -0.502458 0.997098 -0.0026217 0.00115113 -0.00282254 0.0128019 -0.00888666 0.00476731 -0.046553 0.0470785 0.0140272 0.255742 -0.52668 -0.00252015 5.57896e-09 5.57896e-09 5.57706e-09 2.01822e-07 2.01822e-07 2.01849e-07 8.96477e-06 8.96478e-06 8.95645e-06 8.96477e-06 8.96478e-06 8.95645e-06 0.0293247 0.0293247 0.0293148
1702484089.992074000 0 1 1 1 1 1 -1.51058 -0.502437 0.997078 -0.00275463 0.001214 -0.00332289 0.0162085 -0.00120772 -0.00109907 -0.0436289 0.0454563 -0.027561 0.416351 0.391986 -0.561495 6.50083e-09 6.50083e-09 6.49829e-09 2.69093e-07 2.69093e-07 2.69125e-07 1.0823e-05 1.0823e-05 1.08134e-05 1.0823e-05 1.0823e-05 1.08134e-05 0.0510241 0.0510241 0.0510135
1702484089.997084000 0 1 1 1 1 1 -1.51065 -0.502458 0.997125 -0.00285786 0.00118771 -0.00298281 0.00658626 -0.00396432 0.00612644 -0.0512691 0.049059 0.0296898 -0.294047 -0.0397029 0.1379 6.33873e-09 6.33873e-09 6.33636e-09 2.47654e-07 2.47654e-07 2.47685e-07 1.03857e-05 1.03857e-05 1.03763e-05 1.03857e-05 1.03857e-05 1.03763e-05 0.0422519 0.0422519 0.0422406
1702484090.002062000 0 1 1 1 1 1 -1.51062 -0.502515 0.997159 -0.00289854 0.00115214 -0.00327365 0.0138441 -0.0106887 0.0108831 -0.0492567 0.0510581 -0.00114674 0.512383 -0.5058 0.593937 6.21179e-09 6.21179e-09 6.20954e-09 2.36262e-07 2.36262e-07 2.36291e-07 1.01333e-05 1.01333e-05 1.01241e-05 1.01333e-05 1.01333e-05 1.01241e-05 0.0393221 0.0393221 0.0393111
1702484090.007072000 0 1 1 1 1 1 -1.51061 -0.502461 0.99711 -0.00294046 0.0011331 -0.00380299 0.0147678 -0.000644963 0.00274431 -0.0481324 0.0524684 -0.0316123 0.474645 0.362733 -0.114131 6.1306e-09 6.1306e-09 6.12843e-09 2.30155e-07 2.30154e-07 2.30183e-07 9.98992e-06 9.98993e-06 9.98081e-06 9.98992e-06 9.98993e-06 9.98081e-06 0.0385308 0.0385308 0.03852
1702484090.012063000 0 1 1 1 1 1 -1.51067 -0.502494 0.997121 -0.00305026 0.00120839 -0.00348042 0.00691378 -0.00502191 0.00349655 -0.052829 0.0589219 0.0243217 -0.124686 -0.160207 -0.0894475 6.06818e-09 6.06818e-09 6.06605e-09 2.26104e-07 2.26104e-07 2.26133e-07 9.87874e-06 9.87875e-06 9.86965e-06 9.87874e-06 9.87875e-06 9.86965e-06 0.0380218 0.0380218 0.0380111
1702484090.017123000 0 1 1 1 1 1 -1.51062 -0.502514 0.997155 -0.00305231 0.00119904 -0.00395275 0.0164559 -0.00651135 0.00831168 -0.0497118 0.0600563 -0.0245614 0.799156 -0.151366 0.366983 5.7017e-09 5.7017e-09 5.69983e-09 2.04794e-07 2.04794e-07 2.04822e-07 9.23976e-06 9.23976e-06 9.23122e-06 9.23976e-06 9.23976e-06 9.23122e-06 0.0292808 0.0292808 0.0292704
1702484090.022118000 0 1 1 1 1 1 -1.51065 -0.502477 0.997148 -0.00307984 0.00130036 -0.00416931 0.0118562 0.000382193 0.00639352 -0.0462344 0.0667937 -0.0162699 0.216202 0.378577 0.263225 5.67456e-09 5.67456e-09 5.67271e-09 2.03567e-07 2.03566e-07 2.03593e-07 9.18161e-06 9.18162e-06 9.17316e-06 9.18161e-06 9.18162e-06 9.17316e-06 0.0293146 0.0293146 0.0293046
1702484090.027075000 0 1 1 1 1 1 -1.51066 -0.502523 0.997132 -0.00322708 0.00139795 -0.00388431 0.00852459 -0.00596438 0.00261058 -0.0512668 0.0639785 0.0265016 0.00421325 -0.290156 -0.151887 5.98185e-09 5.98185e-09 5.97976e-09 2.22282e-07 2.22281e-07 2.2231e-07 9.70071e-06 9.70072e-06 9.69171e-06 9.70071e-06 9.70072e-06 9.69171e-06 0.0383976 0.0383976 0.0383874
1702484090.032063000 0 1 1 1 1 1 -1.5106 -0.50254 0.997188 -0.00325082 0.00145433 -0.00426924 0.0177244 -0.0066911 0.0100494 -0.0471094 0.0642474 -0.0144395 0.81311 -0.207434 0.517387 5.96212e-09 5.96212e-09 5.96003e-09 2.21591e-07 2.21591e-07 2.21619e-07 9.65339e-06 9.6534e-06 9.64444e-06 9.65339e-06 9.6534e-06 9.64444e-06 0.0382438 0.0382438 0.0382337
1702484090.037062000 0 1 1 1 1 1 -1.51063 -0.502491 0.997163 -0.00326356 0.00155656 -0.00457559 0.0132157 0.00151154 0.00563186 -0.0433093 0.0684868 -0.0200864 0.263157 0.411784 0.185833 5.94939e-09 5.94939e-09 5.9473e-09 2.21333e-07 2.21332e-07 2.2136e-07 9.62054e-06 9.62055e-06 9.61167e-06 9.62054e-06 9.62055e-06 9.61167e-06 0.0382349 0.0382349 0.038225
1702484090.042041000 0 1 1 1 1 1 -1.51065 -0.50255 0.997132 -0.00336222 0.00161806 -0.00420016 0.00964962 -0.00715416 -7.38314e-05 -0.0478148 0.0662778 0.0324527 0.0677281 -0.430577 -0.37792 5.93204e-09 5.93204e-09 5.92995e-09 2.20664e-07 2.20664e-07 2.20692e-07 9.58091e-06 9.58092e-06 9.57202e-06 9.58091e-06 9.58092e-06 9.57202e-06 0.0378919 0.0378919 0.0378818
1702484090.047060000 0 1 1 1 1 1 -1.51059 -0.502539 0.997185 -0.00335824 0.0016524 -0.0046847 0.018672 -0.00390251 0.00683095 -0.0430595 0.0630925 -0.0194579 0.806121 0.000175223 0.203031 5.93001e-09 5.93001e-09 5.92791e-09 2.20961e-07 2.20961e-07 2.2099e-07 9.57181e-06 9.57182e-06 9.56291e-06 9.57181e-06 9.57182e-06 9.56291e-06 0.0380509 0.0380509 0.0380408
1702484090.052144000 0 1 1 1 1 1 -1.51064 -0.502513 0.997198 -0.00329766 0.00169973 -0.00477489 0.0104965 5.3364e-05 0.00853308 -0.0375228 0.0667762 0.00274016 -0.00668343 0.178189 0.438668 5.61622e-09 5.61622e-09 5.61434e-09 2.02413e-07 2.02413e-07 2.0244e-07 9.02209e-06 9.0221e-06 9.01374e-06 9.02209e-06 9.0221e-06 9.01374e-06 0.0293701 0.0293701 0.0293601
1702484090.057117000 0 1 1 1 1 1 -1.51062 -0.502569 0.997178 -0.00325283 0.00175828 -0.00456304 0.0138933 -0.00817963 0.00432074 -0.0301476 0.0663403 0.0291435 0.456807 -0.54736 0.0506361 5.60197e-09 5.60197e-09 5.60009e-09 2.01912e-07 2.01912e-07 2.01939e-07 8.99624e-06 8.99625e-06 8.98793e-06 8.99624e-06 8.99625e-06 8.98793e-06 0.0292671 0.0292671 0.0292572
1702484090.062042000 0 1 1 1 1 1 -1.51056 -0.502538 0.997193 -0.00325288 0.00182741 -0.0050244 0.0199966 -0.00159226 0.00492063 -0.0310105 0.0617409 -0.0212035 0.840673 0.167811 0.0152535 5.90536e-09 5.90536e-09 5.90325e-09 2.20412e-07 2.20411e-07 2.2044e-07 9.52292e-06 9.52293e-06 9.51407e-06 9.52292e-06 9.52293e-06 9.51407e-06 0.0378422 0.0378422 0.037832
1702484090.067059000 0 1 1 1 1 1 -1.51061 -0.502516 0.997247 -0.00311167 0.00199045 -0.00505089 0.0108022 0.0016481 0.0118999 -0.0199447 0.0721074 0.00153507 -0.0342041 0.279894 0.689163 5.90703e-09 5.90704e-09 5.90493e-09 2.20795e-07 2.20794e-07 2.20823e-07 9.52696e-06 9.52698e-06 9.51817e-06 9.52696e-06 9.52698e-06 9.51817e-06 0.0380559 0.0380559 0.038046
1702484090.072107000 0 1 1 1 1 1 -1.51062 -0.502579 0.997241 -0.00299314 0.0020548 -0.00440436 0.0120925 -0.00801427 0.00829825 -0.0166875 0.0743813 0.0676952 0.335732 -0.561477 0.202184 5.58747e-09 5.58747e-09 5.58558e-09 2.01692e-07 2.01691e-07 2.0172e-07 8.97152e-06 8.97153e-06 8.9631e-06 8.97152e-06 8.97153e-06 8.9631e-06 0.0291795 0.0291795 0.0291692
1702484090.077121000 0 1 1 1 1 1 -1.51059 -0.502538 0.997255 -0.00285778 0.00216443 -0.00464666 0.0170953 0.000115059 0.00617731 -0.0149562 0.0745335 0.017206 0.69144 0.326956 -0.16647 5.58956e-09 5.58957e-09 5.58767e-09 2.01944e-07 2.01943e-07 2.01972e-07 8.97599e-06 8.976e-06 8.96748e-06 8.97599e-06 8.976e-06 8.96748e-06 0.0293225 0.0293225 0.029312
1702484090.082048000 0 1 1 1 1 1 -1.51063 -0.502532 0.997337 -0.00266818 0.00246444 -0.00444275 0.00950253 0.0012253 0.0144021 -0.00291209 0.0879229 0.0382974 -0.0455873 0.251617 0.622361 5.8952e-09 5.8952e-09 5.89308e-09 2.20586e-07 2.20585e-07 2.20614e-07 9.51031e-06 9.51032e-06 9.50137e-06 9.51031e-06 9.51032e-06 9.50137e-06 0.0380218 0.0380218 0.0380117
1702484090.087083000 0 1 1 1 1 1 -1.51062 -0.502601 0.997322 -0.0025209 0.00268126 -0.00376373 0.0124133 -0.00839817 0.00781534 -0.00210923 0.0924014 0.0878419 0.375037 -0.541779 -0.0225573 5.90571e-09 5.90571e-09 5.90357e-09 2.21487e-07 2.21485e-07 2.21515e-07 9.53224e-06 9.53225e-06 9.52327e-06 9.53224e-06 9.53225e-06 9.52327e-06 0.0385612 0.0385612 0.038551
1702484090.092081000 0 1 1 1 1 1 -1.51058 -0.502556 0.997359 -0.00228127 0.00292351 -0.0040492 0.0185047 0.000167932 0.0083621 0.00199903 0.0958502 0.0278713 0.779424 0.318017 -0.0678797 5.90388e-09 5.90389e-09 5.90174e-09 2.21537e-07 2.21535e-07 2.21566e-07 9.53154e-06 9.53155e-06 9.52252e-06 9.53154e-06 9.53155e-06 9.52252e-06 0.0386929 0.0386929 0.0386826
1702484090.097128000 0 1 1 1 1 1 -1.51065 -0.502607 0.997428 -0.00204742 0.003193 -0.00356736 0.00980298 -0.00706075 0.0130914 0.00124628 0.102938 0.0780334 0.0464389 -0.454269 0.224984 5.58693e-09 5.58693e-09 5.58501e-09 2.02387e-07 2.02384e-07 2.02415e-07 8.97875e-06 8.97876e-06 8.97018e-06 8.97875e-06 8.97876e-06 8.97018e-06 0.0300471 0.0300471 0.0300365
1702484090.102061000 0 1 1 1 1 1 -1.51059 -0.502643 0.997499 -0.00175326 0.00357044 -0.00335305 0.0185677 -0.00960756 0.016895 0.0157531 0.112055 0.0674162 0.835496 -0.465418 0.537995 5.89574e-09 5.89574e-09 5.89359e-09 2.2152e-07 2.21517e-07 2.21548e-07 9.52464e-06 9.52464e-06 9.5156e-06 9.52464e-06 9.52464e-06 9.5156e-06 0.0388591 0.0388591 0.0388488
1702484090.107060000 0 1 1 1 1 1 -1.51059 -0.502592 0.997507 -0.0014933 0.00387421 -0.00385483 0.016558 0.000612935 0.0108527 0.0165157 0.113817 0.00319865 0.458726 0.433469 -0.093539 5.89501e-09 5.89501e-09 5.89285e-09 2.21543e-07 2.2154e-07 2.21571e-07 9.52543e-06 9.52544e-06 9.51637e-06 9.52543e-06 9.52544e-06 9.51637e-06 0.0387802 0.0387802 0.0387699
1702484090.112119000 0 1 1 1 1 1 -1.51064 -0.502659 0.997573 -0.00113058 0.00423746 -0.00333208 0.011474 -0.00840028 0.0134314 0.0228142 0.121966 0.0674213 0.151163 -0.491314 0.056045 5.58305e-09 5.58305e-09 5.58112e-09 2.02392e-07 2.02389e-07 2.0242e-07 8.9781e-06 8.97811e-06 8.96953e-06 8.9781e-06 8.97811e-06 8.96953e-06 0.0298348 0.0298349 0.0298244
1702484090.117061000 0 1 1 1 1 1 -1.51057 -0.502677 0.997655 -0.0006861 0.00474795 -0.00328224 0.0197956 -0.0076079 0.0177017 0.0405397 0.133798 0.0451647 0.849141 -0.215341 0.426998 5.89479e-09 5.89479e-09 5.89263e-09 2.21474e-07 2.21469e-07 2.21502e-07 9.52745e-06 9.52746e-06 9.51842e-06 9.52745e-06 9.52746e-06 9.51842e-06 0.0385767 0.0385767 0.0385664
1702484090.122061000 0 1 1 1 1 1 -1.51059 -0.502634 0.997678 -0.000209833 0.00523534 -0.00373766 0.0149685 0.0011795 0.0128078 0.0503484 0.141897 -0.00378453 0.263864 0.474793 -0.0500434 5.8947e-09 5.89471e-09 5.89254e-09 2.2138e-07 2.21374e-07 2.21408e-07 9.52747e-06 9.52749e-06 9.51846e-06 9.52747e-06 9.52749e-06 9.51846e-06 0.0384614 0.0384614 0.0384512
1702484090.127066000 0 1 1 1 1 1 -1.51061 -0.502714 0.997755 0.000247624 0.00578556 -0.00315699 0.0121017 -0.00905702 0.0159058 0.0532469 0.150402 0.0627133 0.147161 -0.483041 0.146388 5.89637e-09 5.89638e-09 5.89421e-09 2.21398e-07 2.21391e-07 2.21427e-07 9.53026e-06 9.53027e-06 9.52122e-06 9.53026e-06 9.53027e-06 9.52122e-06 0.0384391 0.0384391 0.0384288
1702484090.132065000 0 1 1 1 1 1 -1.51054 -0.502716 0.99784 0.00098965 0.00643935 -0.00323206 0.0218119 -0.00577475 0.0197172 0.0789463 0.165484 0.0319484 0.938186 -0.012843 0.448796 5.8962e-09 5.8962e-09 5.89403e-09 2.21321e-07 2.21312e-07 2.21349e-07 9.52941e-06 9.52943e-06 9.52039e-06 9.52941e-06 9.52943e-06 9.52039e-06 0.0384083 0.0384083 0.0383981
1702484090.137096000 0 1 1 1 1 1 -1.51058 -0.502697 0.997887 0.00172043 0.00715943 -0.0035949 0.0135771 -0.000756205 0.017286 0.0950608 0.180428 0.000154114 0.100888 0.289874 0.203968 5.90688e-09 5.90689e-09 5.90472e-09 2.22019e-07 2.22008e-07 2.22047e-07 9.54878e-06 9.5488e-06 9.53977e-06 9.54878e-06 9.5488e-06 9.53977e-06 0.0388191 0.0388191 0.038809
1702484090.142064000 0 1 1 1 1 1 -1.51058 -0.502784 0.997955 0.00240261 0.00786003 -0.00296341 0.0143348 -0.0114329 0.0176218 0.0982786 0.185174 0.069019 0.314859 -0.622616 0.145268 5.89615e-09 5.89616e-09 5.89399e-09 2.2123e-07 2.21217e-07 2.21259e-07 9.52746e-06 9.52747e-06 9.51843e-06 9.52746e-06 9.52747e-06 9.51843e-06 0.0383789 0.0383789 0.0383686
1702484090.147066000 0 1 1 1 1 1 -1.51052 -0.502759 0.998038 0.00334775 0.00874863 -0.00324067 0.0215744 -0.00375737 0.0196715 0.120849 0.203893 0.0177588 0.821257 0.19887 0.26367 5.897e-09 5.89701e-09 5.89484e-09 2.21258e-07 2.21241e-07 2.21286e-07 9.52789e-06 9.5279e-06 9.51886e-06 9.52789e-06 9.5279e-06 9.51886e-06 0.0383963 0.0383964 0.038386
1702484090.152061000 0 1 1 1 1 1 -1.51057 -0.502769 0.998116 0.0043712 0.00978446 -0.00347164 0.0121949 -0.00317924 0.0204275 0.144872 0.229924 0.00439439 -0.0474145 0.0925695 0.280842 5.89536e-09 5.89536e-09 5.8932e-09 2.21135e-07 2.21114e-07 2.21163e-07 9.52384e-06 9.52386e-06 9.51482e-06 9.52384e-06 9.52386e-06 9.51482e-06 0.0383359 0.0383359 0.0383257
1702484090.157067000 0 1 1 1 1 1 -1.51052 -0.502853 0.998204 0.00532939 0.0107158 -0.00286859 0.0179456 -0.0122649 0.0218997 0.153168 0.235129 0.0652598 0.581719 -0.586236 0.32613 5.8975e-09 5.8975e-09 5.89534e-09 2.21277e-07 2.21252e-07 2.21306e-07 9.52701e-06 9.52702e-06 9.51796e-06 9.52701e-06 9.52702e-06 9.51796e-06 0.0384158 0.0384159 0.0384055
1702484090.162059000 0 1 1 1 1 1 -1.51048 -0.502813 0.998287 0.0064581 0.011803 -0.00329021 0.021428 -0.00218282 0.0219523 0.166683 0.247226 0.0033892 0.70605 0.385955 0.25722 5.89476e-09 5.89477e-09 5.8926e-09 2.21077e-07 2.21046e-07 2.21105e-07 9.52101e-06 9.52102e-06 9.51196e-06 9.52101e-06 9.52102e-06 9.51196e-06 0.0382835 0.0382836 0.0382732
1702484090.167048000 0 1 1 1 1 1 -1.51053 -0.502866 0.99838 0.0076892 0.0131116 -0.00330299 0.0128004 -0.00738255 0.0228309 0.18791 0.275978 0.0174653 -0.0220689 -0.208902 0.244609 5.89092e-09 5.89093e-09 5.88876e-09 2.20783e-07 2.20745e-07 2.20812e-07 9.51282e-06 9.51284e-06 9.50376e-06 9.51282e-06 9.51284e-06 9.50376e-06 0.0380859 0.0380859 0.0380755
1702484090.172065000 0 1 1 1 1 1 -1.51045 -0.502934 0.998504 0.00898368 0.0143926 -0.00275889 0.0221857 -0.0129338 0.0270354 0.206785 0.291522 0.0662232 0.854478 -0.50423 0.496159 5.89664e-09 5.89665e-09 5.89447e-09 2.21176e-07 2.2113e-07 2.21205e-07 9.52309e-06 9.5231e-06 9.51397e-06 9.52309e-06 9.5231e-06 9.51397e-06 0.0383161 0.0383161 0.0383056
1702484090.177060000 0 1 1 1 1 1 -1.51044 -0.502898 0.998609 0.0102494 0.0157531 -0.00332416 0.0201771 -0.00301574 0.027734 0.211687 0.30402 -0.00613769 0.474721 0.366372 0.474046 5.89478e-09 5.89479e-09 5.89261e-09 2.2106e-07 2.21005e-07 2.21089e-07 9.51928e-06 9.5193e-06 9.51016e-06 9.51928e-06 9.5193e-06 9.51016e-06 0.0382543 0.0382543 0.0382439
1702484090.182060000 0 1 1 1 1 1 -1.51046 -0.502983 0.998707 0.0116326 0.0173326 -0.00316608 0.0145753 -0.0119442 0.0259885 0.225385 0.329554 0.0266329 0.0647072 -0.487227 0.174869 5.89473e-09 5.89473e-09 5.89255e-09 2.21088e-07 2.21022e-07 2.21117e-07 9.51917e-06 9.51918e-06 9.51e-06 9.51917e-06 9.51918e-06 9.51e-06 0.0382788 0.0382788 0.0382683
1702484090.187073000 0 1 1 1 1 1 -1.51037 -0.503019 0.998852 0.0131066 0.0189384 -0.00280944 0.0252899 -0.0114511 0.0299711 0.243312 0.350732 0.0506637 0.957771 -0.221107 0.349394 5.89909e-09 5.89909e-09 5.8969e-09 2.21413e-07 2.21334e-07 2.21443e-07 9.52734e-06 9.52736e-06 9.5181e-06 9.52734e-06 9.52736e-06 9.5181e-06 0.0384621 0.0384621 0.0384514
1702484090.192064000 0 1 1 1 1 1 -1.51037 -0.503007 0.99902 0.0145152 0.0206235 -0.00339831 0.0194734 -0.00456543 0.0364203 0.245517 0.365371 -0.0162802 0.267973 0.307842 0.825289 5.89594e-09 5.89594e-09 5.89375e-09 2.21206e-07 2.21113e-07 2.21235e-07 9.52116e-06 9.52119e-06 9.51194e-06 9.52116e-06 9.52119e-06 9.51194e-06 0.0383162 0.0383162 0.0383056
1702484090.197065000 0 1 1 1 1 1 -1.51035 -0.503117 0.999134 0.0160051 0.0224372 -0.00301055 0.0194193 -0.0157118 0.0334085 0.254799 0.384795 0.0397481 0.366491 -0.64396 0.418656 5.89622e-09 5.89622e-09 5.89402e-09 2.21212e-07 2.21101e-07 2.21241e-07 9.52118e-06 9.52119e-06 9.51192e-06 9.52118e-06 9.52119e-06 9.51192e-06 0.0382747 0.0382747 0.0382642
1702484090.202061000 0 1 1 1 1 1 -1.51025 -0.503129 0.999265 0.0176652 0.0243867 -0.00285084 0.0285097 -0.0102194 0.0310528 0.275347 0.410602 0.0395364 1.01031 0.042707 -0.00757726 5.8947e-09 5.89471e-09 5.8925e-09 2.21098e-07 2.20967e-07 2.21128e-07 9.51797e-06 9.51799e-06 9.50863e-06 9.51797e-06 9.51799e-06 9.50863e-06 0.0381869 0.038187 0.0381762
1702484090.207071000 0 1 1 1 1 1 -1.51026 -0.503163 0.999476 0.0192307 0.0263896 -0.00336697 0.0201894 -0.00923675 0.0399261 0.28067 0.428199 -0.0128454 0.1572 0.0161165 0.649862 5.89809e-09 5.89809e-09 5.89587e-09 2.21368e-07 2.21214e-07 2.21398e-07 9.52444e-06 9.52447e-06 9.5151e-06 9.52444e-06 9.52447e-06 9.5151e-06 0.0383686 0.0383686 0.0383579
1702484090.212060000 0 1 1 1 1 1 -1.51019 -0.503283 0.999653 0.0208473 0.0284715 -0.00285498 0.0254876 -0.0196447 0.0422622 0.285721 0.44426 0.050812 0.688184 -0.761099 0.749159 5.89425e-09 5.89425e-09 5.89203e-09 2.21124e-07 2.20946e-07 2.21153e-07 9.51695e-06 9.51696e-06 9.50764e-06 9.51695e-06 9.51696e-06 9.50764e-06 0.0382025 0.0382025 0.0381919
1702484090.217061000 0 1 1 1 1 1 -1.51011 -0.503279 0.999793 0.0225706 0.0306964 -0.00296879 0.030087 -0.0103112 0.037571 0.297689 0.46772 0.0193515 0.851492 0.20471 0.13281 5.89459e-09 5.89459e-09 5.89236e-09 2.21143e-07 2.20935e-07 2.21173e-07 9.51698e-06 9.51701e-06 9.50762e-06 9.51698e-06 9.51701e-06 9.50762e-06 0.0381625 0.0381625 0.0381518
1702484090.222040000 0 1 1 1 1 1 -1.5101 -0.503362 1.00002 0.0242135 0.0330347 -0.00333288 0.0224088 -0.0149421 0.0437805 0.300754 0.489399 -0.0106433 0.117742 -0.286257 0.474902 5.88734e-09 5.88735e-09 5.88511e-09 2.2066e-07 2.2042e-07 2.2069e-07 9.50312e-06 9.50314e-06 9.49372e-06 9.50312e-06 9.50314e-06 9.49372e-06 0.0378873 0.0378874 0.0378765
1702484090.227069000 0 1 1 1 1 1 -1.50998 -0.50347 1.00024 0.0258832 0.03541 -0.00275842 0.0322807 -0.0210451 0.0491607 0.303136 0.505466 0.0527471 0.96981 -0.593296 0.82831 5.8972e-09 5.8972e-09 5.89496e-09 2.2143e-07 2.21153e-07 2.2146e-07 9.52212e-06 9.52214e-06 9.51272e-06 9.52212e-06 9.52214e-06 9.51272e-06 0.0383663 0.0383663 0.0383556
1702484090.232050000 0 1 1 1 1 1 -1.5099 -0.503479 1.00041 0.0275737 0.0379211 -0.00306458 0.0321925 -0.0118112 0.0441909 0.304644 0.526404 0.0032343 0.687019 0.283348 0.225876 5.89072e-09 5.89072e-09 5.88848e-09 2.21041e-07 2.20723e-07 2.2107e-07 9.50993e-06 9.50996e-06 9.50056e-06 9.50993e-06 9.50996e-06 9.50056e-06 0.0381095 0.0381096 0.0380989
1702484090.237080000 0 1 1 1 1 1 -1.50986 -0.503612 1.00064 0.0292005 0.0405251 -0.00319781 0.0282438 -0.0214567 0.0467749 0.303866 0.544818 0.00244788 0.325269 -0.574341 0.226297 5.90095e-09 5.90096e-09 5.8987e-09 2.21793e-07 2.2143e-07 2.21823e-07 9.52908e-06 9.52911e-06 9.51962e-06 9.52908e-06 9.52911e-06 9.51962e-06 0.0384908 0.0384909 0.03848
1702484090.242082000 0 1 1 1 1 1 -1.5097 -0.503709 1.00092 0.0308446 0.0432115 -0.0026292 0.039683 -0.0229221 0.0558682 0.302925 0.563191 0.0571367 1.19501 -0.429384 0.875255 5.90154e-09 5.90154e-09 5.89928e-09 2.2187e-07 2.21457e-07 2.219e-07 9.52996e-06 9.52998e-06 9.52051e-06 9.52996e-06 9.52998e-06 9.52051e-06 0.0384813 0.0384814 0.0384706
1702484090.247109000 0 1 1 1 1 1 -1.50965 -0.503763 1.00116 0.0324261 0.0460356 -0.00321522 0.0332906 -0.0182616 0.0578273 0.291484 0.59092 -0.0188529 0.38668 -0.0335363 0.962622 5.57893e-09 5.57893e-09 5.57692e-09 2.02207e-07 2.0178e-07 2.02236e-07 8.9648e-06 8.96483e-06 8.95593e-06 8.9648e-06 8.96483e-06 8.95593e-06 0.0292514 0.0292514 0.0292407
1702484090.252063000 0 1 1 1 1 1 -1.50953 -0.503918 1.00136 0.0340311 0.0488651 -0.00299897 0.0355892 -0.0278879 0.0501533 0.2987 0.600996 0.0159939 0.554276 -0.771809 0.0229592 5.89481e-09 5.89481e-09 5.89255e-09 2.21444e-07 2.20917e-07 2.21474e-07 9.5164e-06 9.51643e-06 9.50695e-06 9.5164e-06 9.51643e-06 9.50695e-06 0.0381306 0.0381306 0.0381198
1702484090.257117000 0 1 1 1 1 1 -1.50937 -0.503986 1.00163 0.0356787 0.0517693 -0.00269326 0.0445021 -0.0218694 0.0536853 0.299186 0.616604 0.0356659 1.11105 0.0355936 0.119292 5.58136e-09 5.58137e-09 5.57935e-09 2.0244e-07 2.01899e-07 2.02469e-07 8.96879e-06 8.96882e-06 8.95987e-06 8.96879e-06 8.96882e-06 8.95987e-06 0.0293511 0.0293512 0.0293403
1702484090.262068000 0 1 1 1 1 1 -1.50926 -0.5041 1.00196 0.037051 0.0548489 -0.00310598 0.0396782 -0.0232763 0.06399 0.279824 0.637331 -0.0177217 0.435177 -0.127376 0.936737 5.89642e-09 5.89642e-09 5.89416e-09 2.21819e-07 2.21154e-07 2.21849e-07 9.52108e-06 9.52112e-06 9.51168e-06 9.52108e-06 9.52112e-06 9.51168e-06 0.0384621 0.0384622 0.0384515
1702484090.267070000 0 1 1 1 1 1 -1.5091 -0.504282 1.00221 0.0385641 0.0578659 -0.00274374 0.045249 -0.03321 0.0603529 0.2796 0.647782 0.0320339 0.884071 -0.807258 0.411648 5.89715e-09 5.89716e-09 5.89489e-09 2.22232e-07 2.2149e-07 2.22261e-07 9.52627e-06 9.52631e-06 9.51684e-06 9.52627e-06 9.52631e-06 9.51684e-06 0.0388588 0.0388588 0.038848
1702484090.272064000 0 1 1 1 1 1 -1.5089 -0.50437 1.0025 0.0401061 0.0609326 -0.00253803 0.0518623 -0.0267296 0.0610046 0.282541 0.654399 0.0340972 1.1368 -0.00333144 0.227172 5.89519e-09 5.8952e-09 5.89293e-09 2.22314e-07 2.2149e-07 2.22344e-07 9.52454e-06 9.52458e-06 9.51506e-06 9.52454e-06 9.52458e-06 9.51506e-06 0.0388225 0.0388225 0.0388116
1702484090.277094000 0 1 1 1 1 1 -1.50878 -0.50453 1.00284 0.0413919 0.0641655 -0.003022 0.0468657 -0.0314112 0.0687648 0.261637 0.670839 -0.0187368 0.504617 -0.421301 0.744525 5.90546e-09 5.90547e-09 5.90319e-09 2.23173e-07 2.22257e-07 2.23203e-07 9.5453e-06 9.54535e-06 9.53581e-06 9.5453e-06 9.54535e-06 9.53581e-06 0.0391657 0.0391657 0.0391548
1702484090.282098000 0 1 1 1 1 1 -1.50856 -0.504709 1.00315 0.0427805 0.0673299 -0.00246289 0.0567591 -0.0365774 0.0702847 0.254339 0.683105 0.0504685 1.28683 -0.59178 0.711122 5.5755e-09 5.5755e-09 5.57348e-09 2.02862e-07 2.01945e-07 2.02891e-07 8.9651e-06 8.96514e-06 8.95616e-06 8.9651e-06 8.96514e-06 8.95616e-06 0.0296677 0.0296677 0.0296568
1702484090.287071000 0 1 1 1 1 1 -1.50835 -0.504834 1.00346 0.0441635 0.0705872 -0.0025269 0.0583058 -0.0318773 0.0685908 0.255822 0.690554 0.0172662 1.00222 -0.0249013 0.32816 5.89748e-09 5.89749e-09 5.89521e-09 2.2271e-07 2.21603e-07 2.22739e-07 9.53151e-06 9.53157e-06 9.52202e-06 9.53151e-06 9.53157e-06 9.52202e-06 0.0386358 0.0386359 0.0386249
1702484090.292064000 0 1 1 1 1 1 -1.50816 -0.505045 1.00383 0.0453694 0.0738426 -0.00284897 0.0558488 -0.0397636 0.0737801 0.241124 0.693047 -0.0130203 0.613693 -0.651825 0.573511 5.89502e-09 5.89503e-09 5.89275e-09 2.22545e-07 2.21335e-07 2.22575e-07 9.52679e-06 9.52685e-06 9.51728e-06 9.52679e-06 9.52685e-06 9.51728e-06 0.0384224 0.0384225 0.0384115
1702484090.297060000 0 1 1 1 1 1 -1.50788 -0.50524 1.00418 0.0465979 0.0771752 -0.00223587 0.0666647 -0.0426199 0.0763334 0.23188 0.706106 0.0505152 1.33372 -0.595777 0.634808 5.89369e-09 5.8937e-09 5.89142e-09 2.22449e-07 2.21129e-07 2.22479e-07 9.52355e-06 9.5236e-06 9.51406e-06 9.52355e-06 9.5236e-06 9.51406e-06 0.0382541 0.0382542 0.0382434
1702484090.302061000 0 1 1 1 1 1 -1.50765 -0.505394 1.00453 0.0478122 0.0805758 -0.0024953 0.0662205 -0.038063 0.0757246 0.223993 0.71969 0.00138954 0.910545 -0.0777824 0.391094 5.89415e-09 5.89416e-09 5.89188e-09 2.22471e-07 2.21031e-07 2.22501e-07 9.52299e-06 9.52305e-06 9.51352e-06 9.52299e-06 9.52305e-06 9.51352e-06 0.0381522 0.0381523 0.0381415
1702484090.307060000 0 1 1 1 1 1 -1.5074 -0.505646 1.00491 0.0488996 0.0838217 -0.00258933 0.0679074 -0.0473544 0.0784316 0.214175 0.713217 0.000812372 0.878569 -0.755525 0.420737 5.89393e-09 5.89394e-09 5.89166e-09 2.22437e-07 2.2088e-07 2.22467e-07 9.52055e-06 9.52062e-06 9.51106e-06 9.52055e-06 9.52062e-06 9.51106e-06 0.0380256 0.0380257 0.0380148
1702484090.312061000 0 1 1 1 1 1 -1.50706 -0.505855 1.00531 0.0499216 0.0871613 -0.00199502 0.0780123 -0.0472885 0.0822676 0.19808 0.714761 0.0549682 1.42727 -0.450379 0.581338 5.89446e-09 5.89447e-09 5.89219e-09 2.2246e-07 2.20776e-07 2.2249e-07 9.51895e-06 9.51902e-06 9.50949e-06 9.51895e-06 9.51902e-06 9.50949e-06 0.0379269 0.037927 0.0379162
1702484090.317061000 0 1 1 1 1 1 -1.50679 -0.506064 1.0057 0.0508763 0.0905689 -0.00243543 0.0764763 -0.0466844 0.0837381 0.182093 0.725266 -0.00971949 0.927219 -0.3 0.553222 5.89456e-09 5.89458e-09 5.8923e-09 2.22517e-07 2.20699e-07 2.22547e-07 9.51695e-06 9.51703e-06 9.50753e-06 9.51695e-06 9.51703e-06 9.50753e-06 0.037918 0.0379181 0.0379074
1702484090.322061000 0 1 1 1 1 1 -1.50646 -0.506348 1.0061 0.0518198 0.0938913 -0.00231182 0.0813505 -0.0550319 0.0840657 0.17681 0.723145 0.0136788 1.11406 -0.814728 0.375141 5.89473e-09 5.89474e-09 5.89246e-09 2.22598e-07 2.20643e-07 2.22628e-07 9.51494e-06 9.51501e-06 9.50551e-06 9.51494e-06 9.51501e-06 9.50551e-06 0.0378844 0.0378845 0.0378737
1702484090.327112000 0 1 1 1 1 1 -1.5061 -0.506569 1.00651 0.0526654 0.0971576 -0.0019266 0.0878768 -0.0516877 0.0853587 0.16178 0.71758 0.0384865 1.2992 -0.249336 0.3055 5.58036e-09 5.58038e-09 5.57835e-09 2.03606e-07 2.01692e-07 2.03636e-07 8.96622e-06 8.9663e-06 8.95735e-06 8.96622e-06 8.9663e-06 8.95735e-06 0.0293092 0.0293093 0.0292987
1702484090.332088000 0 1 1 1 1 1 -1.50574 -0.506842 1.00696 0.0532281 0.10059 -0.00238157 0.0886976 -0.0554998 0.0902965 0.12933 0.72435 -0.0208963 0.985326 -0.473469 0.582261 5.90406e-09 5.90408e-09 5.9018e-09 2.23785e-07 2.2153e-07 2.23815e-07 9.53284e-06 9.53293e-06 9.52345e-06 9.53284e-06 9.53293e-06 9.52345e-06 0.0386854 0.0386856 0.0386749
1702484090.337085000 0 1 1 1 1 1 -1.50533 -0.50714 1.00739 0.0539321 0.103827 -0.0018534 0.0970212 -0.0608575 0.0923148 0.120104 0.723662 0.0518614 1.45418 -0.683407 0.607578 5.57179e-09 5.5718e-09 5.56979e-09 2.03557e-07 2.01372e-07 2.03587e-07 8.95103e-06 8.95111e-06 8.94222e-06 8.95103e-06 8.95111e-06 8.94222e-06 0.0293349 0.029335 0.0293244
1702484090.342060000 0 1 1 1 1 1 -1.5049 -0.507407 1.00782 0.0545499 0.107061 -0.00164981 0.10138 -0.059316 0.090864 0.114473 0.710946 0.0451057 1.3422 -0.319979 0.287822 5.89429e-09 5.89431e-09 5.89204e-09 2.23497e-07 2.20946e-07 2.23527e-07 9.51402e-06 9.51412e-06 9.50468e-06 9.51402e-06 9.51412e-06 9.50468e-06 0.0382429 0.0382431 0.0382324
1702484090.347074000 0 1 1 1 1 1 -1.50448 -0.507726 1.00828 0.0548467 0.110326 -0.00223094 0.103169 -0.064473 0.0941971 0.0798383 0.70816 -0.0190412 1.13437 -0.617153 0.396533 5.89877e-09 5.89879e-09 5.89652e-09 2.23945e-07 2.21232e-07 2.23976e-07 9.52221e-06 9.52231e-06 9.51286e-06 9.52221e-06 9.52231e-06 9.51286e-06 0.0383347 0.0383349 0.0383241
1702484090.352053000 0 1 1 1 1 1 -1.50399 -0.508054 1.00877 0.0553017 0.113567 -0.00161586 0.112216 -0.0683164 0.0988143 0.0735157 0.709195 0.053903 1.53723 -0.66893 0.652859 5.89123e-09 5.89125e-09 5.88899e-09 2.2352e-07 2.20651e-07 2.2355e-07 9.50762e-06 9.50772e-06 9.49832e-06 9.50762e-06 9.50772e-06 9.49832e-06 0.0379398 0.0379399 0.0379293
1702484090.357076000 0 1 1 1 1 1 -1.50351 -0.508362 1.00922 0.0555956 0.116697 -0.00161594 0.115192 -0.0675725 0.0976195 0.0563159 0.699463 0.0277802 1.32814 -0.410127 0.415815 5.89879e-09 5.89881e-09 5.89655e-09 2.24134e-07 2.21097e-07 2.24164e-07 9.52116e-06 9.52128e-06 9.5119e-06 9.52116e-06 9.52128e-06 9.5119e-06 0.0381424 0.0381426 0.038132
1702484090.362127000 0 1 1 1 1 1 -1.50301 -0.508727 1.00969 0.0556517 0.11978 -0.00200362 0.119885 -0.0732239 0.0975632 0.0252159 0.689105 -0.000471271 1.38137 -0.697961 0.243024 5.584e-09 5.58403e-09 5.58201e-09 2.04844e-07 2.0192e-07 2.04873e-07 8.97061e-06 8.97072e-06 8.96188e-06 8.97061e-06 8.97072e-06 8.96188e-06 0.0290649 0.029065 0.0290545
1702484090.367067000 0 1 1 1 1 1 -1.50244 -0.509072 1.01019 0.0557436 0.122898 -0.00137555 0.127551 -0.0742333 0.101346 0.0126696 0.683446 0.0648319 1.55037 -0.515076 0.416902 5.8954e-09 5.89542e-09 5.89317e-09 2.24081e-07 2.20715e-07 2.24112e-07 9.513e-06 9.51313e-06 9.50377e-06 9.513e-06 9.51313e-06 9.50377e-06 0.0379067 0.0379069 0.0378963
1702484090.372073000 0 1 1 1 1 1 -1.50188 -0.509438 1.0107 0.0556882 0.126005 -0.00166293 0.130552 -0.0763657 0.104797 -0.00894321 0.682549 0.0117328 1.34508 -0.52399 0.626964 5.89733e-09 5.89736e-09 5.89511e-09 2.24357e-07 2.20815e-07 2.24387e-07 9.51566e-06 9.5158e-06 9.5065e-06 9.51566e-06 9.5158e-06 9.5065e-06 0.0379782 0.0379784 0.037968
1702484090.377126000 0 1 1 1 1 1 -1.50128 -0.509835 1.01118 0.0554716 0.128913 -0.00184261 0.13784 -0.0808855 0.102329 -0.0346903 0.666556 0.0141436 1.58683 -0.670515 0.287286 5.58346e-09 5.58348e-09 5.58148e-09 2.05204e-07 2.01814e-07 2.05233e-07 8.96762e-06 8.96775e-06 8.95901e-06 8.96762e-06 8.96775e-06 8.95901e-06 0.0291095 0.0291097 0.0290994
1702484090.382071000 0 1 1 1 1 1 -1.50065 -0.510207 1.01168 0.0552688 0.131871 -0.00118974 0.143679 -0.0803396 0.102701 -0.0465685 0.656204 0.0777067 1.53343 -0.385919 0.157707 5.8967e-09 5.89673e-09 5.89449e-09 2.24706e-07 2.20822e-07 2.24737e-07 9.51375e-06 9.5139e-06 9.50462e-06 9.51375e-06 9.5139e-06 9.50462e-06 0.0380955 0.0380957 0.0380852
1702484090.387068000 0 1 1 1 1 1 -1.50001 -0.510625 1.01221 0.0547805 0.134793 -0.00177916 0.147742 -0.0852315 0.107954 -0.0803416 0.652247 -0.00196065 1.43916 -0.643856 0.554297 5.8957e-09 5.89573e-09 5.8935e-09 2.24868e-07 2.20808e-07 2.24898e-07 9.51177e-06 9.51192e-06 9.50271e-06 9.51177e-06 9.51192e-06 9.50271e-06 0.0381047 0.0381049 0.0380946
1702484090.392071000 0 1 1 1 1 1 -1.4993 -0.511049 1.0127 0.0542223 0.137595 -0.00186788 0.156236 -0.0879503 0.104628 -0.103434 0.637514 0.0132569 1.68275 -0.605229 0.16884 5.89671e-09 5.89675e-09 5.89452e-09 2.25288e-07 2.2105e-07 2.25317e-07 9.51556e-06 9.51572e-06 9.50655e-06 9.51556e-06 9.51572e-06 9.50655e-06 0.0383838 0.038384 0.0383738
1702484090.397086000 0 1 1 1 1 1 -1.4986 -0.51146 1.01321 0.0536736 0.1403 -0.00123639 0.160017 -0.0876436 0.104354 -0.118254 0.620356 0.0729693 1.46108 -0.39181 0.0208648 5.90178e-09 5.90182e-09 5.8996e-09 2.25908e-07 2.21491e-07 2.25938e-07 9.52608e-06 9.52626e-06 9.51708e-06 9.52608e-06 9.52626e-06 9.51708e-06 0.0386077 0.0386079 0.0385975
1702484090.402067000 0 1 1 1 1 1 -1.49785 -0.511929 1.01378 0.0528117 0.143025 -0.00205022 0.166842 -0.0940676 0.111139 -0.152131 0.613778 -0.0190725 1.58526 -0.741629 0.5404 5.89521e-09 5.89524e-09 5.89304e-09 2.25627e-07 2.21044e-07 2.25657e-07 9.51408e-06 9.51425e-06 9.50512e-06 9.51408e-06 9.51425e-06 9.50512e-06 0.0382812 0.0382814 0.0382711
1702484090.407093000 0 1 1 1 1 1 -1.49706 -0.512368 1.01428 0.051942 0.145585 -0.00184739 0.175188 -0.0937535 0.108626 -0.171287 0.595597 0.0338561 1.76506 -0.461235 0.288318 5.90398e-09 5.90402e-09 5.90182e-09 2.26451e-07 2.21686e-07 2.2648e-07 9.53172e-06 9.5319e-06 9.52283e-06 9.53172e-06 9.5319e-06 9.52283e-06 0.0386597 0.0386599 0.0386498
1702484090.412065000 0 1 1 1 1 1 -1.49627 -0.512828 1.01478 0.0510322 0.148058 -0.00144902 0.177691 -0.0954188 0.104907 -0.189758 0.577838 0.0674689 1.41595 -0.446851 -0.148327 5.89426e-09 5.8943e-09 5.89211e-09 2.25981e-07 2.21063e-07 2.2601e-07 9.51493e-06 9.51512e-06 9.50606e-06 9.51493e-06 9.51512e-06 9.50606e-06 0.0383299 0.0383301 0.0383199
1702484090.417073000 0 1 1 1 1 1 -1.49541 -0.513327 1.01535 0.0498813 0.150459 -0.00236075 0.187221 -0.10105 0.109925 -0.217928 0.561572 -0.0220125 1.75168 -0.697204 0.226984 5.89692e-09 5.89697e-09 5.89478e-09 2.26325e-07 2.21241e-07 2.26355e-07 9.52057e-06 9.52076e-06 9.51171e-06 9.52057e-06 9.52076e-06 9.51171e-06 0.0383791 0.0383793 0.038369
1702484090.422083000 0 1 1 1 1 1 -1.49452 -0.513795 1.01589 0.0487688 0.152771 -0.00196711 0.194941 -0.0994673 0.111544 -0.228924 0.543298 0.0517449 1.79878 -0.337985 0.363911 5.90027e-09 5.90031e-09 5.89814e-09 2.2667e-07 2.21421e-07 2.26699e-07 9.52682e-06 9.52702e-06 9.51805e-06 9.52682e-06 9.52702e-06 9.51805e-06 0.0384215 0.0384218 0.0384117
1702484090.427065000 0 1 1 1 1 1 -1.49364 -0.514307 1.0164 0.0475114 0.154941 -0.0019277 0.197943 -0.104217 0.108236 -0.253942 0.523574 0.047426 1.5326 -0.609623 0.0229027 5.89411e-09 5.89416e-09 5.89199e-09 2.26424e-07 2.21032e-07 2.26453e-07 9.51647e-06 9.51668e-06 9.50772e-06 9.51647e-06 9.51668e-06 9.50772e-06 0.0382903 0.0382905 0.0382805
1702484090.432061000 0 1 1 1 1 1 -1.49266 -0.514827 1.01694 0.0461278 0.156987 -0.00284583 0.209525 -0.10696 0.1094 -0.274742 0.500387 -0.0285644 1.95179 -0.569256 0.0519048 5.89285e-09 5.89289e-09 5.89073e-09 2.26494e-07 2.20958e-07 2.26523e-07 9.51462e-06 9.51483e-06 9.50589e-06 9.51462e-06 9.51483e-06 9.50589e-06 0.0382455 0.0382458 0.0382357
1702484090.437072000 0 1 1 1 1 1 -1.4917 -0.515322 1.01749 0.0448103 0.158872 -0.00233701 0.213756 -0.105367 0.11146 -0.279083 0.472109 0.0586517 1.68057 -0.291115 0.250854 5.89667e-09 5.89672e-09 5.89457e-09 2.26868e-07 2.2119e-07 2.26896e-07 9.52151e-06 9.52175e-06 9.51286e-06 9.52151e-06 9.52175e-06 9.51286e-06 0.0383258 0.0383261 0.0383161
1702484090.442062000 0 1 1 1 1 1 -1.49069 -0.515889 1.01802 0.0432066 0.160755 -0.0025968 0.219803 -0.11257 0.109264 -0.311537 0.456971 0.0307269 1.66984 -0.738415 0.0109835 5.89324e-09 5.89329e-09 5.89115e-09 2.2669e-07 2.20882e-07 2.26719e-07 9.51428e-06 9.51451e-06 9.50564e-06 9.51428e-06 9.51451e-06 9.50564e-06 0.0380963 0.0380966 0.0380866
1702484090.447065000 0 1 1 1 1 1 -1.48961 -0.516409 1.01856 0.0416407 0.162455 -0.00338582 0.231241 -0.111045 0.108999 -0.32593 0.434468 -0.0184801 2.02131 -0.349322 -0.0318875 5.89437e-09 5.89442e-09 5.89228e-09 2.26927e-07 2.2099e-07 2.26956e-07 9.517e-06 9.51724e-06 9.50839e-06 9.517e-06 9.51724e-06 9.50839e-06 0.0382479 0.0382482 0.0382382
1702484090.452087000 0 1 1 1 1 1 -1.48855 -0.516954 1.01912 0.0401968 0.16399 -0.00289142 0.233198 -0.111659 0.111781 -0.317797 0.402443 0.0639292 1.53817 -0.317427 0.225327 5.90188e-09 5.90194e-09 5.8998e-09 2.2758e-07 2.21513e-07 2.27608e-07 9.53098e-06 9.53124e-06 9.52243e-06 9.53098e-06 9.53124e-06 9.52243e-06 0.038531 0.0385313 0.0385214
1702484090.457084000 0 1 1 1 1 1 -1.48742 -0.517553 1.01964 0.0383855 0.165471 -0.00349561 0.243295 -0.119482 0.109884 -0.349758 0.382074 0.00696296 1.90796 -0.779417 0.0441334 5.90092e-09 5.90098e-09 5.89885e-09 2.27582e-07 2.21406e-07 2.2761e-07 9.52849e-06 9.52874e-06 9.51995e-06 9.52849e-06 9.52874e-06 9.51995e-06 0.0384311 0.0384313 0.0384214
1702484090.462066000 0 1 1 1 1 1 -1.48623 -0.518079 1.02018 0.0365926 0.166858 -0.00414434 0.253654 -0.114046 0.108691 -0.368564 0.365769 -0.0152194 2.0643 -0.0809425 -0.0636838 5.89479e-09 5.89485e-09 5.89273e-09 2.27188e-07 2.2092e-07 2.27216e-07 9.516e-06 9.51626e-06 9.50751e-06 9.516e-06 9.51626e-06 9.50751e-06 0.0381115 0.0381119 0.038102
1702484090.467085000 0 1 1 1 1 1 -1.48509 -0.518672 1.02073 0.0350002 0.167954 -0.00377345 0.253308 -0.118711 0.1105 -0.358883 0.328387 0.0539649 1.45174 -0.471519 0.112675 5.90128e-09 5.90134e-09 5.89922e-09 2.27794e-07 2.21428e-07 2.27822e-07 9.52888e-06 9.52915e-06 9.52041e-06 9.52888e-06 9.52915e-06 9.52041e-06 0.0384981 0.0384984 0.0384886
1702484090.472067000 0 1 1 1 1 1 -1.48381 -0.519298 1.02126 0.0331327 0.168946 -0.00452568 0.268057 -0.125629 0.109682 -0.376403 0.296654 -0.00867577 2.172 -0.782104 0.0172162 5.89523e-09 5.89529e-09 5.89318e-09 2.27458e-07 2.21026e-07 2.27486e-07 9.51751e-06 9.51777e-06 9.50905e-06 9.51751e-06 9.51777e-06 9.50905e-06 0.0382756 0.0382759 0.038266
1702484090.477066000 0 1 1 1 1 1 -1.48255 -0.519824 1.0218 0.0312839 0.169906 -0.00499717 0.274363 -0.116906 0.109216 -0.387575 0.278772 -0.00534268 1.94307 0.111922 0.0265772 5.89488e-09 5.89494e-09 5.89284e-09 2.27517e-07 2.21011e-07 2.27545e-07 9.51677e-06 9.51706e-06 9.50838e-06 9.51677e-06 9.51706e-06 9.50838e-06 0.0382653 0.0382657 0.0382559
1702484090.482098000 0 1 1 1 1 1 -1.48128 -0.520476 1.02234 0.0295365 0.170608 -0.00484643 0.274271 -0.125886 0.109526 -0.382872 0.245069 0.0421844 1.37624 -0.660763 0.0340391 5.90585e-09 5.90591e-09 5.90381e-09 2.28409e-07 2.21824e-07 2.28437e-07 9.53805e-06 9.53833e-06 9.52963e-06 9.53805e-06 9.53833e-06 9.52963e-06 0.0387546 0.0387549 0.0387451
1702484090.487073000 0 1 1 1 1 1 -1.47988 -0.521095 1.02287 0.0276641 0.171096 -0.00571048 0.29222 -0.128555 0.108391 -0.392359 0.20797 -0.0215096 2.35206 -0.570785 -0.0823651 5.89723e-09 5.89729e-09 5.8952e-09 2.2786e-07 2.21253e-07 2.27888e-07 9.52229e-06 9.52257e-06 9.51387e-06 9.52229e-06 9.52257e-06 9.51387e-06 0.0384505 0.0384508 0.0384409
1702484090.492059000 0 1 1 1 1 1 -1.47852 -0.521639 1.02342 0.0257536 0.171606 -0.00605637 0.295602 -0.118966 0.110707 -0.401459 0.188711 -0.00119098 1.81144 0.311641 0.187556 5.89244e-09 5.89251e-09 5.89043e-09 2.27606e-07 2.20967e-07 2.27633e-07 9.51398e-06 9.5143e-06 9.50566e-06 9.51398e-06 9.5143e-06 9.50566e-06 0.0382989 0.0382993 0.0382895
1702484090.497059000 0 1 1 1 1 1 -1.47715 -0.522328 1.02395 0.0239272 0.171822 -0.00615581 0.297226 -0.131819 0.109003 -0.401589 0.152684 0.0220991 1.4965 -0.809673 0.031655 5.89247e-09 5.89253e-09 5.89045e-09 2.27661e-07 2.21004e-07 2.27688e-07 9.51478e-06 9.51507e-06 9.50641e-06 9.51478e-06 9.51507e-06 9.50641e-06 0.0383225 0.0383228 0.038313
1702484090.502083000 0 1 1 1 1 1 -1.4756 -0.522957 1.02447 0.0220901 0.171849 -0.00700474 0.317034 -0.130841 0.106251 -0.398048 0.115285 -0.0295512 2.52141 -0.371828 -0.244085 5.90064e-09 5.90071e-09 5.89863e-09 2.28279e-07 2.21603e-07 2.28307e-07 9.53099e-06 9.53129e-06 9.5226e-06 9.53099e-06 9.53129e-06 9.5226e-06 0.0386592 0.0386596 0.0386497
1702484090.507060000 0 1 1 1 1 1 -1.47418 -0.52352 1.02503 0.0202439 0.171825 -0.0072654 0.315678 -0.122756 0.110457 -0.399257 0.0889173 -0.000241548 1.61151 0.271343 0.208787 5.89276e-09 5.89283e-09 5.89076e-09 2.27731e-07 2.21071e-07 2.27758e-07 9.51677e-06 9.5171e-06 9.50847e-06 9.51677e-06 9.5171e-06 9.50847e-06 0.0383578 0.0383583 0.0383485
1702484090.512095000 0 1 1 1 1 1 -1.47265 -0.524254 1.02556 0.0183033 0.171569 -0.00760716 0.320959 -0.137716 0.109122 -0.408743 0.0540252 0.00435956 1.61423 -0.972033 0.0727594 5.90471e-09 5.90478e-09 5.9027e-09 2.28571e-07 2.21907e-07 2.28598e-07 9.53982e-06 9.54011e-06 9.53145e-06 9.53982e-06 9.54011e-06 9.53145e-06 0.0388089 0.0388092 0.0387994
1702484090.517100000 0 1 1 1 1 1 -1.47101 -0.524854 1.02607 0.0165699 0.171143 -0.0083807 0.339349 -0.131055 0.105186 -0.398159 0.0214104 -0.03061 2.48166 -0.0807023 -0.281854 5.90648e-09 5.90655e-09 5.90447e-09 2.28644e-07 2.22011e-07 2.28672e-07 9.54338e-06 9.54368e-06 9.53501e-06 9.54338e-06 9.54368e-06 9.53501e-06 0.0388473 0.0388476 0.0388377
1702484090.522075000 0 1 1 1 1 1 -1.46947 -0.525453 1.02663 0.0148434 0.170592 -0.0086623 0.336322 -0.125543 0.110581 -0.388031 -0.0092387 -0.00550657 1.43345 0.276498 0.252998 5.89789e-09 5.89796e-09 5.89589e-09 2.27956e-07 2.21384e-07 2.27983e-07 9.52712e-06 9.52745e-06 9.51882e-06 9.52712e-06 9.52745e-06 9.51882e-06 0.0384776 0.038478 0.0384682
1702484090.527063000 0 1 1 1 1 1 -1.46784 -0.526188 1.02715 0.0129744 0.169815 -0.00925384 0.345356 -0.140081 0.108862 -0.397581 -0.0476208 -0.0214991 1.821 -0.900879 0.105619 5.89382e-09 5.89389e-09 5.89182e-09 2.27595e-07 2.21094e-07 2.27623e-07 9.51965e-06 9.51995e-06 9.51131e-06 9.51965e-06 9.51995e-06 9.51131e-06 0.0383342 0.0383345 0.0383247
1702484090.532074000 0 1 1 1 1 1 -1.46608 -0.526795 1.02765 0.0112716 0.168976 -0.00991028 0.361914 -0.131462 0.10367 -0.390056 -0.0714457 -0.0335407 2.45074 0.119697 -0.340282 5.89767e-09 5.89775e-09 5.89568e-09 2.27788e-07 2.21344e-07 2.27815e-07 9.52675e-06 9.52707e-06 9.51844e-06 9.52675e-06 9.52707e-06 9.51844e-06 0.0384577 0.0384581 0.0384483
1702484090.537073000 0 1 1 1 1 1 -1.46445 -0.527428 1.0282 0.00967113 0.167948 -0.0102348 0.357242 -0.129849 0.10757 -0.374937 -0.102801 -0.0153882 1.35568 0.0900618 0.0626226 5.89731e-09 5.89738e-09 5.89532e-09 2.27663e-07 2.213e-07 2.2769e-07 9.52582e-06 9.52615e-06 9.51754e-06 9.52582e-06 9.52615e-06 9.51754e-06 0.0384364 0.0384368 0.038427
1702484090.542066000 0 1 1 1 1 1 -1.46267 -0.528171 1.02873 0.00787173 0.166647 -0.0109859 0.369597 -0.142471 0.108274 -0.383341 -0.146595 -0.0407457 1.96912 -0.866502 0.12541 5.89499e-09 5.89506e-09 5.893e-09 2.27415e-07 2.21157e-07 2.27443e-07 9.52166e-06 9.52196e-06 9.51335e-06 9.52166e-06 9.52196e-06 9.51335e-06 0.0383852 0.0383855 0.0383757
1702484090.547075000 0 1 1 1 1 1 -1.46084 -0.528766 1.02923 0.00629612 0.165362 -0.0114667 0.381995 -0.13188 0.104931 -0.372635 -0.168838 -0.0293205 2.26373 0.235039 -0.116169 5.89807e-09 5.89814e-09 5.89608e-09 2.27544e-07 2.21377e-07 2.27571e-07 9.52741e-06 9.52773e-06 9.51914e-06 9.52741e-06 9.52773e-06 9.51914e-06 0.0385076 0.038508 0.0384983
1702484090.552438000 0 1 1 1 1 1 -1.45896 -0.529494 1.0298 0.00464349 0.163684 -0.0120221 0.379145 -0.135705 0.106576 -0.364747 -0.204461 -0.0323041 1.36411 -0.277294 0.075155 5.68479e-09 5.68486e-09 5.68295e-09 2.13529e-07 2.07858e-07 2.13556e-07 9.14584e-06 9.14614e-06 9.13788e-06 9.14584e-06 9.14614e-06 9.13788e-06 0.0316021 0.0316025 0.0315927
1702484090.557047000 0 1 1 1 1 1 -1.4572 -0.530149 1.03028 0.00315509 0.162085 -0.0127463 0.39198 -0.141525 0.10544 -0.359701 -0.241636 -0.0541629 2.00854 -0.614139 -0.0533213 5.88847e-09 5.88854e-09 5.88648e-09 2.26606e-07 2.20704e-07 2.26634e-07 9.50919e-06 9.50949e-06 9.50088e-06 9.50919e-06 9.50949e-06 9.50088e-06 0.0381221 0.0381224 0.0381126
1702484090.562058000 0 1 1 1 1 1 -1.45526 -0.530764 1.03081 0.00162938 0.160263 -0.0131028 0.402753 -0.13236 0.106586 -0.355231 -0.269232 -0.0253681 2.14564 0.298802 0.105542 5.89224e-09 5.89232e-09 5.89026e-09 2.26754e-07 2.20978e-07 2.26781e-07 9.51641e-06 9.51673e-06 9.50815e-06 9.51641e-06 9.51673e-06 9.50815e-06 0.0382847 0.0382851 0.0382754
1702484090.567059000 0 1 1 1 1 1 -1.45339 -0.531446 1.03132 0.000207663 0.158297 -0.0137269 0.40102 -0.135582 0.105317 -0.344529 -0.297109 -0.041434 1.42339 -0.123752 0.0458888 5.8926e-09 5.89268e-09 5.89062e-09 2.26647e-07 2.21014e-07 2.26674e-07 9.51722e-06 9.51753e-06 9.50896e-06 9.51722e-06 9.51753e-06 9.50896e-06 0.038304 0.0383043 0.0382946
1702484090.572102000 0 1 1 1 1 1 -1.45139 -0.532144 1.03182 -0.00118647 0.155926 -0.0145948 0.413725 -0.139047 0.102539 -0.333489 -0.3424 -0.0624307 2.04349 -0.285729 -0.222916 5.57588e-09 5.57594e-09 5.57411e-09 2.06738e-07 2.01751e-07 2.06764e-07 8.96303e-06 8.96331e-06 8.9552e-06 8.96303e-06 8.96331e-06 8.9552e-06 0.0294249 0.0294252 0.0294154
1702484090.577058000 0 1 1 1 1 1 -1.44939 -0.532779 1.03235 -0.00260842 0.153716 -0.0148869 0.421044 -0.133846 0.105537 -0.328299 -0.367536 -0.0287785 1.92341 0.203518 0.0822705 5.89225e-09 5.89232e-09 5.89027e-09 2.26308e-07 2.21002e-07 2.26336e-07 9.51691e-06 9.51722e-06 9.50862e-06 9.51691e-06 9.51722e-06 9.50862e-06 0.0383126 0.0383129 0.0383031
1702484090.582058000 0 1 1 1 1 1 -1.44737 -0.53347 1.03287 -0.00400423 0.151217 -0.0156495 0.423133 -0.136906 0.105901 -0.328851 -0.398909 -0.0558984 1.52148 -0.143239 0.179114 5.8922e-09 5.89227e-09 5.89022e-09 2.26132e-07 2.21e-07 2.26159e-07 9.51684e-06 9.51714e-06 9.50858e-06 9.51684e-06 9.51714e-06 9.50858e-06 0.0383 0.0383003 0.0382906
1702484090.587060000 0 1 1 1 1 1 -1.4453 -0.534152 1.03335 -0.00528775 0.148546 -0.0165155 0.432702 -0.138685 0.101099 -0.316092 -0.432472 -0.0743053 1.83341 -0.222512 -0.262585 5.89289e-09 5.89297e-09 5.89091e-09 2.26013e-07 2.21062e-07 2.26041e-07 9.51848e-06 9.51876e-06 9.51016e-06 9.51848e-06 9.51876e-06 9.51016e-06 0.0383456 0.0383459 0.038336
1702484090.592058000 0 1 1 1 1 1 -1.44318 -0.534804 1.03389 -0.00653635 0.145749 -0.0167428 0.44002 -0.13503 0.10506 -0.306801 -0.460939 -0.0302235 1.79666 0.114641 0.0987623 5.89221e-09 5.89228e-09 5.89022e-09 2.25794e-07 2.21031e-07 2.25821e-07 9.51752e-06 9.51781e-06 9.5092e-06 9.51752e-06 9.51781e-06 9.5092e-06 0.0383383 0.0383387 0.0383288
1702484090.597059000 0 1 1 1 1 1 -1.44108 -0.535478 1.0344 -0.00779782 0.142743 -0.0176433 0.444023 -0.136291 0.105711 -0.306448 -0.497928 -0.0709233 1.62394 -0.0576605 0.2301 5.89258e-09 5.89265e-09 5.89059e-09 2.25636e-07 2.2107e-07 2.25663e-07 9.51846e-06 9.51874e-06 9.51016e-06 9.51846e-06 9.51874e-06 9.51016e-06 0.0383602 0.0383605 0.0383508
1702484090.602067000 0 1 1 1 1 1 -1.4389 -0.536158 1.03487 -0.00890849 0.13959 -0.0184784 0.450645 -0.137026 0.0994413 -0.289343 -0.530357 -0.0813696 1.63235 -0.0969507 -0.34245 5.89532e-09 5.89539e-09 5.89333e-09 2.2564e-07 2.21271e-07 2.25667e-07 9.52395e-06 9.52422e-06 9.51561e-06 9.52395e-06 9.52422e-06 9.51561e-06 0.0384759 0.0384762 0.0384664
1702484090.607055000 0 1 1 1 1 1 -1.43672 -0.536818 1.0354 -0.00995172 0.136387 -0.0186957 0.457581 -0.136135 0.10277 -0.274861 -0.553628 -0.0379977 1.69833 -0.0220692 -0.0486939 5.89122e-09 5.89129e-09 5.88923e-09 2.25154e-07 2.20992e-07 2.25182e-07 9.5165e-06 9.51677e-06 9.50813e-06 9.5165e-06 9.51677e-06 9.50813e-06 0.0383192 0.0383195 0.0383096
1702484090.612060000 0 1 1 1 1 1 -1.43448 -0.53748 1.03593 -0.0111012 0.13286 -0.0196821 0.464021 -0.134565 0.106276 -0.279085 -0.593652 -0.0836843 1.67806 0.0895447 0.331105 5.89298e-09 5.89305e-09 5.89099e-09 2.25041e-07 2.21093e-07 2.25069e-07 9.5196e-06 9.51986e-06 9.51127e-06 9.5196e-06 9.51986e-06 9.51127e-06 0.0383381 0.0383384 0.0383286
1702484090.617060000 0 1 1 1 1 1 -1.43226 -0.538149 1.0364 -0.0120716 0.129293 -0.0204264 0.467038 -0.135493 0.101284 -0.265224 -0.624026 -0.0809731 1.46295 -0.0530209 -0.0916238 5.89294e-09 5.89301e-09 5.89095e-09 2.24792e-07 2.21056e-07 2.24819e-07 9.51923e-06 9.51948e-06 9.51088e-06 9.51923e-06 9.51948e-06 9.51088e-06 0.038296 0.0382963 0.0382865
1702484090.622061000 0 1 1 1 1 1 -1.42995 -0.538828 1.03691 -0.0129337 0.125647 -0.0206641 0.475799 -0.136767 0.101357 -0.245431 -0.642132 -0.0407298 1.69679 -0.127906 -0.121269 5.89332e-09 5.89338e-09 5.89132e-09 2.2459e-07 2.21064e-07 2.24618e-07 9.51985e-06 9.5201e-06 9.51145e-06 9.51985e-06 9.5201e-06 9.51145e-06 0.0383085 0.0383087 0.0382988
1702484090.627066000 0 1 1 1 1 1 -1.42765 -0.539459 1.03743 -0.0139323 0.121725 -0.0216909 0.480596 -0.132059 0.103689 -0.249901 -0.678647 -0.0898378 1.57885 0.234917 0.150524 5.895e-09 5.89507e-09 5.893e-09 2.24479e-07 2.2117e-07 2.24507e-07 9.52283e-06 9.52307e-06 9.51445e-06 9.52283e-06 9.52307e-06 9.51445e-06 0.0383733 0.0383736 0.0383638
1702484090.632043000 0 1 1 1 1 1 -1.42535 -0.540135 1.03791 -0.0147905 0.117679 -0.0223836 0.482074 -0.134715 0.101335 -0.24063 -0.714443 -0.0810387 1.2438 -0.0878888 -0.0389051 5.88718e-09 5.88724e-09 5.88518e-09 2.23712e-07 2.20629e-07 2.23739e-07 9.50802e-06 9.50825e-06 9.49964e-06 9.50802e-06 9.50825e-06 9.49964e-06 0.0380804 0.0380807 0.0380709
1702484090.637126000 0 1 1 1 1 1 -1.42293 -0.540805 1.03841 -0.0154896 0.113486 -0.0227446 0.492601 -0.13445 0.0994878 -0.222525 -0.737533 -0.0517206 1.74539 -0.00148102 -0.231175 5.5836e-09 5.58365e-09 5.58181e-09 2.04813e-07 2.02187e-07 2.0484e-07 8.97689e-06 8.9771e-06 8.96893e-06 8.97689e-06 8.9771e-06 8.96893e-06 0.0296059 0.0296061 0.0295963
1702484090.642041000 0 1 1 1 1 1 -1.42058 -0.541416 1.03892 -0.0163289 0.10946 -0.0237138 0.495882 -0.128882 0.103246 -0.221711 -0.752539 -0.0969967 1.44838 0.406225 0.166644 5.88646e-09 5.88652e-09 5.88446e-09 2.23245e-07 2.20582e-07 2.23272e-07 9.5064e-06 9.50662e-06 9.49801e-06 9.5064e-06 9.50662e-06 9.49801e-06 0.0380405 0.0380407 0.0380309
1702484090.647067000 0 1 1 1 1 1 -1.41821 -0.542102 1.03941 -0.0170624 0.105104 -0.0243451 0.495927 -0.134004 0.101715 -0.214125 -0.780542 -0.080525 1.12462 -0.172049 0.0590126 5.89533e-09 5.89538e-09 5.89332e-09 2.236e-07 2.21141e-07 2.23627e-07 9.5222e-06 9.52241e-06 9.51378e-06 9.5222e-06 9.52241e-06 9.51378e-06 0.0383006 0.0383008 0.038291
1702484090.652064000 0 1 1 1 1 1 -1.41572 -0.542761 1.0399 -0.0176467 0.100724 -0.0246631 0.507719 -0.134009 0.100342 -0.197235 -0.798258 -0.0510218 1.70905 -0.0783582 -0.100786 5.89424e-09 5.89429e-09 5.89222e-09 2.23242e-07 2.20987e-07 2.2327e-07 9.51907e-06 9.51927e-06 9.5106e-06 9.51907e-06 9.51927e-06 9.5106e-06 0.0381681 0.0381683 0.0381584
1702484090.657126000 0 1 1 1 1 1 -1.41329 -0.54337 1.04042 -0.0182404 0.0961544 -0.0258377 0.506085 -0.127015 0.102186 -0.191512 -0.816182 -0.109499 1.05773 0.401237 0.0969891 5.58335e-09 5.5834e-09 5.58155e-09 2.03933e-07 2.02055e-07 2.0396e-07 8.97465e-06 8.97484e-06 8.96666e-06 8.97465e-06 8.97484e-06 8.96666e-06 0.0293675 0.0293677 0.0293578
1702484090.662074000 0 1 1 1 1 1 -1.41085 -0.544052 1.04091 -0.0188811 0.0916691 -0.026342 0.508725 -0.133776 0.10215 -0.187537 -0.837032 -0.0828174 1.00264 -0.292883 0.100898 5.89754e-09 5.89758e-09 5.89551e-09 2.23017e-07 2.2115e-07 2.23045e-07 9.52391e-06 9.52408e-06 9.51542e-06 9.52391e-06 9.52408e-06 9.51542e-06 0.038286 0.0382862 0.0382763
1702484090.667063000 0 1 1 1 1 1 -1.40832 -0.544678 1.04139 -0.0193343 0.0871142 -0.0267108 0.520503 -0.130955 0.100379 -0.173571 -0.849063 -0.059704 1.65977 0.0499153 -0.0790692 5.89373e-09 5.89377e-09 5.8917e-09 2.22612e-07 2.20929e-07 2.2264e-07 9.51696e-06 9.51713e-06 9.50844e-06 9.51696e-06 9.51713e-06 9.50844e-06 0.0382417 0.0382418 0.0382319
1702484090.672101000 0 1 1 1 1 1 -1.40585 -0.545284 1.0419 -0.0197748 0.0823742 -0.0278494 0.516271 -0.125506 0.101621 -0.167401 -0.863631 -0.110635 0.834371 0.333973 0.0558996 5.57532e-09 5.57536e-09 5.57352e-09 2.03014e-07 2.01642e-07 2.03041e-07 8.96041e-06 8.96057e-06 8.95238e-06 8.96041e-06 8.96057e-06 8.95238e-06 0.029391 0.0293911 0.0293812
1702484090.677060000 0 1 1 1 1 1 -1.40334 -0.545961 1.0424 -0.0202232 0.0777547 -0.0283327 0.520013 -0.132709 0.102469 -0.157425 -0.874053 -0.0826305 0.962079 -0.364803 0.144528 5.89268e-09 5.89272e-09 5.89065e-09 2.22239e-07 2.20901e-07 2.22267e-07 9.51459e-06 9.51474e-06 9.50606e-06 9.51459e-06 9.51474e-06 9.50606e-06 0.0382048 0.0382049 0.0381951
1702484090.682071000 0 1 1 1 1 1 -1.40072 -0.546572 1.04287 -0.020523 0.0729436 -0.0287622 0.532265 -0.127664 0.0990933 -0.144135 -0.889063 -0.0654501 1.61452 0.18679 -0.184262 5.89641e-09 5.89646e-09 5.89437e-09 2.22326e-07 2.21148e-07 2.22354e-07 9.52132e-06 9.52147e-06 9.51275e-06 9.52132e-06 9.52147e-06 9.51275e-06 0.0383348 0.038335 0.038325
1702484090.687115000 0 1 1 1 1 1 -1.39821 -0.547178 1.04338 -0.020815 0.0681285 -0.0299358 0.524639 -0.123893 0.101172 -0.139841 -0.894378 -0.117166 0.566224 0.277008 0.0229957 5.57967e-09 5.57971e-09 5.57785e-09 2.02826e-07 2.01889e-07 2.02853e-07 8.96711e-06 8.96724e-06 8.95902e-06 8.96711e-06 8.96724e-06 8.95902e-06 0.0294271 0.0294272 0.0294173
1702484090.692102000 0 1 1 1 1 1 -1.39563 -0.547848 1.04389 -0.0210549 0.0633996 -0.0303074 0.531911 -0.131644 0.103597 -0.127833 -0.89629 -0.0710978 1.16404 -0.435497 0.25648 5.57544e-09 5.57548e-09 5.57362e-09 2.02499e-07 2.01689e-07 2.02526e-07 8.96047e-06 8.96058e-06 8.95236e-06 8.96047e-06 8.96058e-06 8.95236e-06 0.0294303 0.0294304 0.0294204
1702484090.697126000 0 1 1 1 1 1 -1.39299 -0.548419 1.04437 -0.0212182 0.0585505 -0.0309976 0.539221 -0.121582 0.100709 -0.115631 -0.90419 -0.0857601 1.35599 0.561178 -0.0306999 5.58309e-09 5.58312e-09 5.58126e-09 2.02808e-07 2.02115e-07 2.02834e-07 8.97328e-06 8.9734e-06 8.96516e-06 8.97328e-06 8.9734e-06 8.96516e-06 0.029524 0.0295241 0.0295142
1702484090.702043000 0 1 1 1 1 1 -1.39047 -0.549016 1.04487 -0.0214893 0.0539407 -0.0319741 0.532725 -0.120554 0.102359 -0.116235 -0.902291 -0.120008 0.459026 0.383957 0.100922 5.88662e-09 5.88666e-09 5.88457e-09 2.21205e-07 2.20565e-07 2.21232e-07 9.50436e-06 9.50447e-06 9.49574e-06 9.50436e-06 9.50447e-06 9.49574e-06 0.0380428 0.0380429 0.0380329
1702484090.707065000 0 1 1 1 1 1 -1.38785 -0.549696 1.04538 -0.0216226 0.0492137 -0.0323783 0.538647 -0.130276 0.10431 -0.106844 -0.898057 -0.0791887 0.959077 -0.470021 0.271983 5.89411e-09 5.89414e-09 5.89205e-09 2.21594e-07 2.21061e-07 2.21622e-07 9.51829e-06 9.51838e-06 9.50963e-06 9.51829e-06 9.51838e-06 9.50963e-06 0.0382806 0.0382807 0.0382707
1702484090.712075000 0 1 1 1 1 1 -1.38516 -0.550249 1.04586 -0.0216509 0.0444223 -0.0330393 0.547273 -0.119725 0.100534 -0.0934751 -0.901638 -0.086605 1.31182 0.514393 -0.0837562 5.89745e-09 5.89748e-09 5.89538e-09 2.2177e-07 2.21335e-07 2.21797e-07 9.52545e-06 9.52555e-06 9.51677e-06 9.52545e-06 9.52555e-06 9.51677e-06 0.0384944 0.0384945 0.0384845
1702484090.717073000 0 1 1 1 1 1 -1.38261 -0.550848 1.04636 -0.0217711 0.0397739 -0.0340995 0.537566 -0.119976 0.102175 -0.0939433 -0.896745 -0.120334 0.290618 0.21189 0.0502191 5.89675e-09 5.89678e-09 5.89468e-09 2.21669e-07 2.21321e-07 2.21697e-07 9.5248e-06 9.52489e-06 9.51611e-06 9.5248e-06 9.52489e-06 9.51611e-06 0.0385061 0.0385062 0.0384962
1702484090.722072000 0 1 1 1 1 1 -1.37992 -0.551516 1.04689 -0.0217673 0.0351402 -0.0344497 0.546202 -0.128866 0.105977 -0.0836005 -0.886507 -0.0749649 0.999423 -0.504752 0.369349 5.89641e-09 5.89643e-09 5.89433e-09 2.21584e-07 2.21313e-07 2.21612e-07 9.52454e-06 9.52461e-06 9.51582e-06 9.52454e-06 9.52461e-06 9.51582e-06 0.038494 0.0384941 0.038484
1702484090.727060000 0 1 1 1 1 1 -1.37727 -0.552031 1.04736 -0.0216753 0.0305114 -0.0352659 0.550173 -0.115923 0.102207 -0.07112 -0.885506 -0.0988096 1.03255 0.620347 0.0419624 5.89239e-09 5.89241e-09 5.89032e-09 2.21227e-07 2.21024e-07 2.21254e-07 9.51704e-06 9.51711e-06 9.50833e-06 9.51704e-06 9.51711e-06 9.50833e-06 0.0383028 0.0383029 0.0382929
1702484090.732060000 0 1 1 1 1 1 -1.37467 -0.552643 1.04785 -0.0216754 0.025913 -0.0362774 0.540863 -0.119086 0.101676 -0.0710005 -0.882277 -0.12248 0.0874912 0.0739693 -0.0378055 5.89237e-09 5.89239e-09 5.89029e-09 2.2117e-07 2.21024e-07 2.21198e-07 9.5173e-06 9.51736e-06 9.50856e-06 9.5173e-06 9.51736e-06 9.50856e-06 0.0383075 0.0383076 0.0382975
1702484090.737070000 0 1 1 1 1 1 -1.37196 -0.553275 1.04838 -0.0215717 0.0214579 -0.0366392 0.550958 -0.124959 0.10545 -0.0627686 -0.866564 -0.0799215 1.00923 -0.350344 0.266238 5.89578e-09 5.8958e-09 5.89369e-09 2.21359e-07 2.2126e-07 2.21387e-07 9.52396e-06 9.52401e-06 9.51518e-06 9.52396e-06 9.52401e-06 9.51518e-06 0.0384424 0.0384424 0.0384323
1702484090.742120000 0 1 1 1 1 1 -1.3693 -0.553785 1.04888 -0.0213235 0.0169814 -0.037714 0.548801 -0.112007 0.104776 -0.0498487 -0.850191 -0.122297 0.516371 0.706382 0.220857 5.58105e-09 5.58107e-09 5.57919e-09 2.02114e-07 2.02058e-07 2.02141e-07 8.97237e-06 8.97243e-06 8.9641e-06 8.97237e-06 8.97243e-06 8.9641e-06 0.0295394 0.0295395 0.0295295
1702484090.747078000 0 1 1 1 1 1 -1.36668 -0.554398 1.04937 -0.0212291 0.0126485 -0.0384555 0.543263 -0.118418 0.103267 -0.0466391 -0.845857 -0.115451 0.0401741 -0.103267 0.0496835 5.89842e-09 5.89843e-09 5.89632e-09 2.21458e-07 2.21425e-07 2.21485e-07 9.52896e-06 9.52901e-06 9.52017e-06 9.52896e-06 9.52901e-06 9.52017e-06 0.0385141 0.0385142 0.0385041
1702484090.752061000 0 1 1 1 1 1 -1.36394 -0.555005 1.04989 -0.0210706 0.00840452 -0.0388899 0.554728 -0.121735 0.105259 -0.044855 -0.828103 -0.0830941 1.02084 -0.263731 0.166251 5.89259e-09 5.89261e-09 5.8905e-09 2.2102e-07 2.21007e-07 2.21048e-07 9.51795e-06 9.51799e-06 9.50912e-06 9.51795e-06 9.51799e-06 9.50912e-06 0.0382759 0.038276 0.0382658
1702484090.757074000 0 1 1 1 1 1 -1.36129 -0.555496 1.05039 -0.0208102 0.0042828 -0.0399582 0.551085 -0.109261 0.10562 -0.0352455 -0.806475 -0.123855 0.484773 0.695747 0.215701 5.89712e-09 5.89713e-09 5.89502e-09 2.21346e-07 2.21345e-07 2.21374e-07 9.52683e-06 9.52688e-06 9.51803e-06 9.52683e-06 9.52688e-06 9.51803e-06 0.0385004 0.0385004 0.0384904
1702484090.762076000 0 1 1 1 1 1 -1.35865 -0.556119 1.05089 -0.0206264 0.000119095 -0.0407209 0.544373 -0.117792 0.104572 -0.0334517 -0.799485 -0.113014 -0.0325789 -0.253859 0.105631 5.89776e-09 5.89777e-09 5.89565e-09 2.21375e-07 2.21377e-07 2.21402e-07 9.52786e-06 9.52789e-06 9.51904e-06 9.52786e-06 9.52789e-06 9.51904e-06 0.0385033 0.0385033 0.0384932
1702484090.767085000 0 1 1 1 1 1 -1.35592 -0.556684 1.0514 -0.0204198 -0.00381958 -0.0412845 0.554518 -0.11693 0.104543 -0.0318521 -0.777511 -0.0956471 0.895285 -0.0556391 0.0464794 5.90092e-09 5.90093e-09 5.8988e-09 2.21627e-07 2.21626e-07 2.21655e-07 9.53429e-06 9.53431e-06 9.52542e-06 9.53429e-06 9.53431e-06 9.52542e-06 0.0386816 0.0386816 0.0386714
1702484090.772072000 0 1 1 1 1 1 -1.35327 -0.557178 1.05192 -0.0201056 -0.00761379 -0.0424144 0.549335 -0.106681 0.106892 -0.0231188 -0.749411 -0.135621 0.240799 0.679681 0.248902 5.89684e-09 5.89685e-09 5.89473e-09 2.21387e-07 2.21376e-07 2.21414e-07 9.52705e-06 9.52708e-06 9.5182e-06 9.52705e-06 9.52708e-06 9.5182e-06 0.0386291 0.0386291 0.038619
1702484090.777063000 0 1 1 1 1 1 -1.35065 -0.557788 1.05243 -0.0198144 -0.0114211 -0.0430406 0.544762 -0.115851 0.107214 -0.0165759 -0.737429 -0.108669 0.0355345 -0.284737 0.280925 5.89517e-09 5.89518e-09 5.89306e-09 2.21149e-07 2.21122e-07 2.21177e-07 9.52186e-06 9.52188e-06 9.51302e-06 9.52186e-06 9.52188e-06 9.51302e-06 0.0382831 0.0382831 0.0382731
1702484090.782078000 0 1 1 1 1 1 -1.3479 -0.558333 1.05292 -0.0195168 -0.0151558 -0.0437703 0.553989 -0.112912 0.104488 -0.0143091 -0.724165 -0.108191 0.805468 0.0793892 -0.0227694 5.9014e-09 5.90141e-09 5.89928e-09 2.21471e-07 2.21422e-07 2.21499e-07 9.53164e-06 9.53166e-06 9.52276e-06 9.53164e-06 9.53166e-06 9.52276e-06 0.0383713 0.0383714 0.0383612
1702484090.787088000 0 1 1 1 1 1 -1.34528 -0.558832 1.05344 -0.0191661 -0.0185662 -0.0448784 0.546018 -0.105846 0.105577 -0.00954222 -0.689438 -0.138343 0.0661352 0.494873 0.0535301 5.90556e-09 5.90557e-09 5.90344e-09 2.21678e-07 2.21604e-07 2.21706e-07 9.53754e-06 9.53756e-06 9.52865e-06 9.53754e-06 9.53756e-06 9.52865e-06 0.038446 0.038446 0.0384359
1702484090.792071000 0 1 1 1 1 1 -1.34263 -0.55943 1.05398 -0.0187607 -0.0219946 -0.0454538 0.543907 -0.114117 0.109617 0.0017084 -0.66897 -0.106465 0.0437134 -0.318095 0.409564 5.9004e-09 5.90041e-09 5.89828e-09 2.21285e-07 2.2118e-07 2.21314e-07 9.52616e-06 9.52617e-06 9.51729e-06 9.52616e-06 9.52617e-06 9.51729e-06 0.0382349 0.0382349 0.0382249
1702484090.797117000 0 1 1 1 1 1 -1.33992 -0.559945 1.05447 -0.0183824 -0.0253478 -0.0463313 0.54957 -0.109082 0.107064 0.00513122 -0.65175 -0.120408 0.580931 0.180035 0.166911 5.91661e-09 5.91661e-09 5.91447e-09 2.22421e-07 2.2228e-07 2.2245e-07 9.55521e-06 9.55522e-06 9.54632e-06 9.55521e-06 9.55522e-06 9.54632e-06 0.03888 0.03888 0.03887
1702484090.802065000 0 1 1 1 1 1 -1.33732 -0.560445 1.05497 -0.0180004 -0.0284119 -0.0473639 0.54257 -0.104435 0.104335 0.00409697 -0.621021 -0.138156 -0.0530891 0.404437 -0.123966 5.89911e-09 5.89911e-09 5.89698e-09 2.21235e-07 2.21057e-07 2.21263e-07 9.52108e-06 9.52109e-06 9.51219e-06 9.52108e-06 9.52109e-06 9.51219e-06 0.0382245 0.0382245 0.0382144
1702484090.807062000 0 1 1 1 1 1 -1.3347 -0.561014 1.05551 -0.0175074 -0.0313785 -0.0479536 0.540996 -0.11063 0.109007 0.0166315 -0.592081 -0.109759 0.055953 -0.214598 0.267817 5.89832e-09 5.89833e-09 5.8962e-09 2.21216e-07 2.21e-07 2.21245e-07 9.51844e-06 9.51844e-06 9.50954e-06 9.51844e-06 9.51844e-06 9.50954e-06 0.0381777 0.0381777 0.0381676
1702484090.812065000 0 1 1 1 1 1 -1.33201 -0.561523 1.05604 -0.0170147 -0.0342818 -0.0489379 0.54493 -0.106614 0.110254 0.0251565 -0.570624 -0.130996 0.420355 0.171248 0.367924 5.89946e-09 5.89946e-09 5.89733e-09 2.21339e-07 2.2108e-07 2.21367e-07 9.5197e-06 9.5197e-06 9.51082e-06 9.5197e-06 9.5197e-06 9.51082e-06 0.0382194 0.0382194 0.0382094
1702484090.817071000 0 1 1 1 1 1 -1.32943 -0.562023 1.05653 -0.0165824 -0.0369189 -0.049861 0.538326 -0.103404 0.106247 0.0225331 -0.536824 -0.133241 -0.0583001 0.289777 -0.00385555 5.90154e-09 5.90154e-09 5.89941e-09 2.21524e-07 2.21224e-07 2.21553e-07 9.523e-06 9.52301e-06 9.51412e-06 9.523e-06 9.52301e-06 9.51412e-06 0.0382967 0.0382967 0.0382867
1702484090.822092000 0 1 1 1 1 1 -1.32681 -0.56257 1.05705 -0.0160279 -0.0394629 -0.0505855 0.537044 -0.107487 0.106903 0.0290467 -0.502132 -0.116531 0.0837893 -0.141899 0.0143272 5.57712e-09 5.57712e-09 5.57523e-09 2.01867e-07 2.01553e-07 2.01894e-07 8.95632e-06 8.95632e-06 8.94794e-06 8.95632e-06 8.95632e-06 8.94794e-06 0.0291172 0.0291172 0.0291071
1702484090.827102000 0 1 1 1 1 1 -1.32416 -0.563069 1.05759 -0.0154365 -0.0418979 -0.0516357 0.53791 -0.103785 0.11014 0.0427626 -0.477311 -0.14078 0.226444 0.205635 0.2945 5.5802e-09 5.5802e-09 5.5783e-09 2.02078e-07 2.01724e-07 2.02106e-07 8.96123e-06 8.96124e-06 8.95284e-06 8.96123e-06 8.96124e-06 8.95284e-06 0.0291459 0.0291459 0.0291358
1702484090.832103000 0 1 1 1 1 1 -1.3216 -0.563567 1.0581 -0.0149584 -0.0440931 -0.0524333 0.532262 -0.101977 0.109284 0.0405401 -0.442135 -0.127282 -0.135613 0.217016 0.233174 5.58043e-09 5.58043e-09 5.57853e-09 2.02133e-07 2.01741e-07 2.0216e-07 8.96157e-06 8.96157e-06 8.9532e-06 8.96157e-06 8.96157e-06 8.9532e-06 0.0291445 0.0291445 0.0291345
1702484090.837039000 0 1 1 1 1 1 -1.31903 -0.564087 1.05861 -0.0144942 -0.0462045 -0.0531578 0.530111 -0.104595 0.10811 0.0399793 -0.421927 -0.120914 -0.121071 -0.086745 0.0677421 5.8902e-09 5.8902e-09 5.88807e-09 2.20955e-07 2.20484e-07 2.20983e-07 9.50169e-06 9.50169e-06 9.4928e-06 9.50169e-06 9.50169e-06 9.4928e-06 0.0378922 0.0378922 0.0378821
1702484090.842064000 0 1 1 1 1 1 -1.3164 -0.564595 1.05916 -0.0138882 -0.048233 -0.0541686 0.532209 -0.103667 0.111049 0.0510653 -0.399073 -0.137653 0.193636 0.0174573 0.299822 5.89862e-09 5.89862e-09 5.89649e-09 2.21608e-07 2.21093e-07 2.21637e-07 9.51789e-06 9.51789e-06 9.50899e-06 9.51789e-06 9.51789e-06 9.50899e-06 0.0382474 0.0382474 0.0382373
1702484090.847078000 0 1 1 1 1 1 -1.31385 -0.565064 1.05967 -0.0134084 -0.0499729 -0.0550047 0.527508 -0.0987855 0.109319 0.0465719 -0.359841 -0.130997 -0.0772492 0.329618 0.151033 5.90341e-09 5.90341e-09 5.90127e-09 2.21969e-07 2.21415e-07 2.21997e-07 9.52678e-06 9.52678e-06 9.51788e-06 9.52678e-06 9.52678e-06 9.51788e-06 0.0383934 0.0383934 0.0383833
1702484090.852072000 0 1 1 1 1 1 -1.3113 -0.565588 1.06019 -0.012883 -0.051688 -0.0558095 0.52254 -0.102675 0.108973 0.0458719 -0.335237 -0.126233 -0.284287 -0.114106 0.0910219 5.90126e-09 5.90126e-09 5.89912e-09 2.21804e-07 2.21212e-07 2.21832e-07 9.52211e-06 9.52211e-06 9.51322e-06 9.52211e-06 9.52211e-06 9.51322e-06 0.0382223 0.0382223 0.0382123
1702484090.857053000 0 1 1 1 1 1 -1.30875 -0.566081 1.06072 -0.0122721 -0.0532802 -0.0567379 0.525262 -0.102355 0.110372 0.0564121 -0.314568 -0.134467 0.186201 -0.0441687 0.202168 5.8947e-09 5.8947e-09 5.89257e-09 2.21304e-07 2.20677e-07 2.21332e-07 9.50879e-06 9.50879e-06 9.4999e-06 9.50879e-06 9.50879e-06 9.4999e-06 0.0378606 0.0378606 0.0378505
1702484090.862116000 0 1 1 1 1 1 -1.30622 -0.56654 1.06124 -0.0117034 -0.0546645 -0.0576673 0.518666 -0.0966053 0.109153 0.0567402 -0.277105 -0.134 -0.265651 0.337796 0.106703 5.58416e-09 5.58416e-09 5.58226e-09 2.02433e-07 2.01829e-07 2.02461e-07 8.96671e-06 8.96671e-06 8.95833e-06 8.96671e-06 8.96671e-06 8.95833e-06 0.0289182 0.0289182 0.0289082
1702484090.867040000 0 1 1 1 1 1 -1.30374 -0.567053 1.06176 -0.0112812 -0.0558942 -0.0584221 0.514322 -0.101598 0.109847 0.0493877 -0.249833 -0.128073 -0.363166 -0.198888 0.145163 5.8901e-09 5.8901e-09 5.88798e-09 2.20881e-07 2.20192e-07 2.20909e-07 9.4976e-06 9.4976e-06 9.48873e-06 9.4976e-06 9.4976e-06 9.48873e-06 0.03753 0.03753 0.03752
1702484090.872122000 0 1 1 1 1 1 -1.30115 -0.567535 1.0623 -0.0106458 -0.0571117 -0.05937 0.518643 -0.0990243 0.110807 0.0573424 -0.223492 -0.135085 0.252332 0.123743 0.233325 5.58599e-09 5.58599e-09 5.58408e-09 2.02588e-07 2.01928e-07 2.02615e-07 8.96902e-06 8.96902e-06 8.96064e-06 8.96902e-06 8.96902e-06 8.96064e-06 0.0291609 0.0291609 0.0291509
1702484090.877077000 0 1 1 1 1 1 -1.29869 -0.567979 1.0628 -0.010141 -0.0580943 -0.0602541 0.512152 -0.0936022 0.108046 0.0597522 -0.200268 -0.139331 -0.248137 0.452606 -0.0106781 5.90278e-09 5.90278e-09 5.90065e-09 2.21976e-07 2.21227e-07 2.22004e-07 9.52232e-06 9.52232e-06 9.51346e-06 9.52232e-06 9.52232e-06 9.51346e-06 0.0383202 0.0383202 0.0383103
1702484090.882080000 0 1 1 1 1 1 -1.29621 -0.568514 1.06334 -0.00970777 -0.0589422 -0.0609582 0.506254 -0.101831 0.108872 0.0495684 -0.167571 -0.12221 -0.437142 -0.362773 0.0408524 5.90379e-09 5.90379e-09 5.90166e-09 2.2208e-07 2.21309e-07 2.22108e-07 9.52379e-06 9.52379e-06 9.51492e-06 9.52379e-06 9.52379e-06 9.51492e-06 0.0383301 0.0383301 0.0383201
1702484090.887066000 0 1 1 1 1 1 -1.2937 -0.568974 1.06387 -0.00906765 -0.0597901 -0.0618107 0.512243 -0.098557 0.111796 0.0632284 -0.151612 -0.128154 0.304931 0.0346499 0.315437 5.89886e-09 5.89886e-09 5.89674e-09 2.21761e-07 2.20969e-07 2.21789e-07 9.51429e-06 9.51429e-06 9.50545e-06 9.51429e-06 9.51429e-06 9.50545e-06 0.038124 0.038124 0.038114
1702484090.892079000 0 1 1 1 1 1 -1.29126 -0.569401 1.06437 -0.00849 -0.0604268 -0.0628386 0.503257 -0.0911642 0.107738 0.0684141 -0.126814 -0.143773 -0.401508 0.507344 -0.0184626 5.90327e-09 5.90327e-09 5.90114e-09 2.22072e-07 2.21262e-07 2.22099e-07 9.52227e-06 9.52227e-06 9.51344e-06 9.52227e-06 9.52227e-06 9.51344e-06 0.0382564 0.0382564 0.0382465
1702484090.897072000 0 1 1 1 1 1 -1.28885 -0.569937 1.06489 -0.00804854 -0.0609134 -0.0634503 0.499049 -0.101436 0.107863 0.0596858 -0.0968392 -0.117432 -0.341279 -0.45794 -0.0315553 5.90074e-09 5.90074e-09 5.89861e-09 2.21896e-07 2.21074e-07 2.21925e-07 9.51744e-06 9.51744e-06 9.50859e-06 9.51744e-06 9.51744e-06 9.50859e-06 0.0381417 0.0381417 0.0381317
1702484090.902091000 0 1 1 1 1 1 -1.28633 -0.570382 1.06546 -0.00742138 -0.0614036 -0.064383 0.505956 -0.0957672 0.113317 0.0692182 -0.079683 -0.133442 0.377657 0.164395 0.436281 5.9071e-09 5.9071e-09 5.90497e-09 2.22376e-07 2.21538e-07 2.22404e-07 9.52984e-06 9.52985e-06 9.52099e-06 9.52984e-06 9.52985e-06 9.52099e-06 0.0384495 0.0384495 0.0384395
1702484090.907061000 0 1 1 1 1 1 -1.284 -0.570807 1.06595 -0.00686084 -0.0617213 -0.0654135 0.493246 -0.0907106 0.109692 0.0726361 -0.0575912 -0.147034 -0.560267 0.38326 0.175001 5.89677e-09 5.89677e-09 5.89465e-09 2.21672e-07 2.20828e-07 2.21699e-07 9.51047e-06 9.51047e-06 9.50167e-06 9.51047e-06 9.51047e-06 9.50167e-06 0.0380323 0.0380323 0.0380224
1702484090.912062000 0 1 1 1 1 1 -1.28157 -0.571351 1.06645 -0.00646863 -0.0619447 -0.0659376 0.492375 -0.102089 0.105352 0.0588992 -0.0343924 -0.11186 -0.24531 -0.609362 -0.246583 5.89701e-09 5.89701e-09 5.89489e-09 2.21656e-07 2.20807e-07 2.21685e-07 9.51043e-06 9.51044e-06 9.5016e-06 9.51043e-06 9.51044e-06 9.5016e-06 0.0379691 0.0379691 0.0379591
1702484090.917072000 0 1 1 1 1 1 -1.27913 -0.571759 1.067 -0.00585478 -0.062086 -0.0669967 0.497084 -0.0927087 0.110351 0.0684915 -0.0144922 -0.143938 0.30065 0.315537 0.172952 5.90043e-09 5.90043e-09 5.89831e-09 2.21964e-07 2.2111e-07 2.21993e-07 9.5179e-06 9.5179e-06 9.50904e-06 9.5179e-06 9.5179e-06 9.50904e-06 0.0382387 0.0382387 0.0382286
1702484090.922063000 0 1 1 1 1 1 -1.27681 -0.572202 1.06754 -0.00528823 -0.0620759 -0.0679925 0.483561 -0.0904509 0.112254 0.0747854 0.00854865 -0.149129 -0.720975 0.279667 0.413264 5.89736e-09 5.89736e-09 5.89525e-09 2.21767e-07 2.20914e-07 2.21795e-07 9.51223e-06 9.51223e-06 9.50344e-06 9.51223e-06 9.51223e-06 9.50344e-06 0.0381056 0.0381056 0.0380957
1702484090.927061000 0 1 1 1 1 1 -1.27443 -0.57273 1.06802 -0.00491203 -0.0619893 -0.0684023 0.48571 -0.100806 0.107175 0.062988 0.0306514 -0.105845 -0.0863998 -0.572999 -0.0413993 5.89667e-09 5.89667e-09 5.89455e-09 2.21699e-07 2.20848e-07 2.21727e-07 9.51076e-06 9.51076e-06 9.50196e-06 9.51076e-06 9.51076e-06 9.50196e-06 0.0380384 0.0380384 0.0380285
1702484090.932061000 0 1 1 1 1 1 -1.27202 -0.573124 1.06855 -0.00438715 -0.0618189 -0.0695867 0.489277 -0.089684 0.108211 0.0645759 0.0491299 -0.152632 0.267384 0.474994 -0.00931119 5.89661e-09 5.89661e-09 5.89449e-09 2.21667e-07 2.20821e-07 2.21696e-07 9.51048e-06 9.51048e-06 9.50163e-06 9.51048e-06 9.51048e-06 9.50163e-06 0.0379987 0.0379987 0.0379886
1702484090.937073000 0 1 1 1 1 1 -1.26976 -0.573585 1.06909 -0.00388096 -0.0615062 -0.0704453 0.474613 -0.0915195 0.111349 0.0682363 0.0715892 -0.14106 -0.735233 0.0703647 0.342021 5.9007e-09 5.9007e-09 5.89858e-09 2.21929e-07 2.21091e-07 2.21957e-07 9.51802e-06 9.51802e-06 9.50922e-06 9.51802e-06 9.51802e-06 9.50922e-06 0.0381548 0.0381548 0.0381449
1702484090.942086000 0 1 1 1 1 1 -1.26739 -0.574086 1.0696 -0.00343914 -0.061179 -0.070959 0.480694 -0.0979489 0.110428 0.0644711 0.0923571 -0.112135 0.228269 -0.363933 0.300137 5.57379e-09 5.57379e-09 5.57191e-09 2.02056e-07 2.01301e-07 2.02083e-07 8.94816e-06 8.94816e-06 8.93988e-06 8.94816e-06 8.94816e-06 8.93988e-06 0.028882 0.0288821 0.0288722
1702484090.947070000 0 1 1 1 1 1 -1.26506 -0.574481 1.0701 -0.00305145 -0.0607655 -0.0721671 0.478975 -0.0880255 0.107114 0.0592389 0.102482 -0.161753 0.0826344 0.510399 -0.0812795 5.89962e-09 5.89962e-09 5.8975e-09 2.21794e-07 2.20976e-07 2.21822e-07 9.51548e-06 9.51548e-06 9.50663e-06 9.51548e-06 9.51548e-06 9.50663e-06 0.0380806 0.0380806 0.0380705
1702484090.952059000 0 1 1 1 1 1 -1.26283 -0.57496 1.07066 -0.00260863 -0.0601938 -0.0728875 0.465905 -0.0927999 0.112941 0.0611625 0.123772 -0.134505 -0.783599 -0.107976 0.463735 5.89591e-09 5.89591e-09 5.89379e-09 2.21514e-07 2.20712e-07 2.21542e-07 9.50827e-06 9.50828e-06 9.49947e-06 9.50827e-06 9.50828e-06 9.49947e-06 0.0379419 0.0379419 0.0379319
1702484090.957074000 0 1 1 1 1 1 -1.26049 -0.575453 1.07116 -0.00224174 -0.0595754 -0.0733575 0.472624 -0.0981432 0.10999 0.0585464 0.143376 -0.107734 0.173486 -0.423914 0.220784 5.90102e-09 5.90102e-09 5.8989e-09 2.21833e-07 2.21047e-07 2.21861e-07 9.51737e-06 9.51738e-06 9.50857e-06 9.51737e-06 9.51738e-06 9.50857e-06 0.0381114 0.0381114 0.0381015
1702484090.962062000 0 1 1 1 1 1 -1.2582 -0.575829 1.07166 -0.00184544 -0.0589516 -0.0747807 0.469931 -0.0862291 0.105822 0.0548165 0.153201 -0.175333 -0.040499 0.585142 -0.2078 5.89691e-09 5.89691e-09 5.89479e-09 2.21548e-07 2.20779e-07 2.21576e-07 9.50977e-06 9.50977e-06 9.50091e-06 9.50977e-06 9.50977e-06 9.50091e-06 0.03799 0.03799 0.0379799
1702484090.967059000 0 1 1 1 1 1 -1.25601 -0.576323 1.07221 -0.00148105 -0.0581678 -0.0752977 0.45853 -0.0941248 0.11089 0.0525851 0.17175 -0.125507 -0.660614 -0.279256 0.253902 5.89591e-09 5.89591e-09 5.89379e-09 2.21555e-07 2.20806e-07 2.21584e-07 9.50906e-06 9.50906e-06 9.50022e-06 9.50906e-06 9.50906e-06 9.50022e-06 0.0381061 0.0381061 0.0380961
1702484090.972057000 0 1 1 1 1 1 -1.25369 -0.576799 1.07274 -0.00108534 -0.0573043 -0.0758677 0.466744 -0.0967139 0.111484 0.0581877 0.192054 -0.112209 0.313967 -0.323849 0.322583 5.8953e-09 5.89531e-09 5.89319e-09 2.21523e-07 2.20796e-07 2.21551e-07 9.50815e-06 9.50815e-06 9.49933e-06 9.50815e-06 9.50815e-06 9.49933e-06 0.0380659 0.0380659 0.0380559
1702484090.977077000 0 1 1 1 1 1 -1.25148 -0.577178 1.07323 -0.00075578 -0.0564647 -0.0773341 0.459889 -0.0862013 0.10683 0.052066 0.201822 -0.179365 -0.201642 0.503342 -0.10467 5.90204e-09 5.90204e-09 5.89992e-09 2.22029e-07 2.21322e-07 2.22057e-07 9.52173e-06 9.52173e-06 9.51288e-06 9.52173e-06 9.52173e-06 9.51288e-06 0.0383912 0.0383912 0.0383812
1702484090.982063000 0 1 1 1 1 1 -1.2493 -0.577684 1.07378 -0.000463742 -0.0555553 -0.0777106 0.451408 -0.0955053 0.110137 0.0456673 0.210419 -0.115734 -0.601098 -0.423669 0.186039 5.89718e-09 5.89718e-09 5.89506e-09 2.21662e-07 2.20979e-07 2.2169e-07 9.51277e-06 9.51278e-06 9.50394e-06 9.51277e-06 9.51278e-06 9.50394e-06 0.0381471 0.0381471 0.0381371
1702484090.987066000 0 1 1 1 1 1 -1.24703 -0.578128 1.0743 -8.3284e-05 -0.0545462 -0.0784965 0.458882 -0.094241 0.110854 0.0531639 0.225617 -0.129111 0.308105 -0.139868 0.278227 5.89811e-09 5.89811e-09 5.89599e-09 2.21696e-07 2.21038e-07 2.21724e-07 9.51487e-06 9.51487e-06 9.50605e-06 9.51487e-06 9.51487e-06 9.50605e-06 0.038164 0.038164 0.038154
1702484090.992063000 0 1 1 1 1 1 -1.24485 -0.578522 1.07479 0.000222938 -0.053479 -0.0799479 0.451197 -0.0861183 0.106241 0.0497187 0.241381 -0.187112 -0.307555 0.453217 -0.139699 5.897e-09 5.897e-09 5.89488e-09 2.21547e-07 2.20914e-07 2.21575e-07 9.5126e-06 9.5126e-06 9.50378e-06 9.5126e-06 9.5126e-06 9.50378e-06 0.0380442 0.0380442 0.0380342
1702484090.997088000 0 1 1 1 1 1 -1.24269 -0.579032 1.07534 0.00043667 -0.0524503 -0.080187 0.445743 -0.0960789 0.109547 0.0393219 0.245616 -0.111041 -0.383992 -0.47788 0.144218 5.90547e-09 5.90547e-09 5.90334e-09 2.22038e-07 2.21428e-07 2.22066e-07 9.52789e-06 9.5279e-06 9.51905e-06 9.52789e-06 9.5279e-06 9.51905e-06 0.0382884 0.0382884 0.0382784
1702484091.002060000 0 1 1 1 1 1 -1.24046 -0.579462 1.07588 0.000777186 -0.0513161 -0.0811524 0.452988 -0.0926701 0.112 0.0469773 0.255816 -0.142747 0.379692 -0.0186518 0.361064 5.89584e-09 5.89584e-09 5.89372e-09 2.21272e-07 2.20691e-07 2.21301e-07 9.50907e-06 9.50907e-06 9.50024e-06 9.50907e-06 9.50907e-06 9.50024e-06 0.0378544 0.0378544 0.0378444
1702484091.007065000 0 1 1 1 1 1 -1.23835 -0.579869 1.07637 0.00101535 -0.0500847 -0.0824929 0.44289 -0.087451 0.107634 0.0431689 0.273197 -0.182246 -0.366934 0.288382 -0.009389 5.8976e-09 5.8976e-09 5.89548e-09 2.21356e-07 2.20801e-07 2.21384e-07 9.51217e-06 9.51217e-06 9.50335e-06 9.51217e-06 9.51217e-06 9.50335e-06 0.0379766 0.0379766 0.0379666
1702484091.012144000 0 1 1 1 1 1 -1.23617 -0.58038 1.0769 0.00120892 -0.048887 -0.0826976 0.442063 -0.0967364 0.108066 0.0338172 0.284203 -0.104222 -0.0348553 -0.523036 0.0193159 5.59215e-09 5.59215e-09 5.59025e-09 2.02748e-07 2.02265e-07 2.02776e-07 8.9786e-06 8.9786e-06 8.97025e-06 8.9786e-06 8.9786e-06 8.97025e-06 0.0291692 0.0291692 0.0291592
1702484091.017059000 0 1 1 1 1 1 -1.23402 -0.580791 1.07743 0.00146861 -0.0476556 -0.0838489 0.445215 -0.0912477 0.110675 0.0396887 0.2843 -0.158512 0.305137 0.0921057 0.252118 5.8957e-09 5.8957e-09 5.89358e-09 2.21145e-07 2.20643e-07 2.21173e-07 9.50735e-06 9.50735e-06 9.49852e-06 9.50735e-06 9.50735e-06 9.49852e-06 0.0378647 0.0378647 0.0378547
1702484091.022075000 0 1 1 1 1 1 -1.23192 -0.581217 1.07793 0.00168937 -0.0462618 -0.0850936 0.435579 -0.0883964 0.107505 0.0396862 0.302145 -0.181858 -0.423154 0.200519 -0.0111716 5.90116e-09 5.90116e-09 5.89904e-09 2.21447e-07 2.20974e-07 2.21475e-07 9.51648e-06 9.51648e-06 9.50767e-06 9.51648e-06 9.51648e-06 9.50767e-06 0.0380242 0.0380242 0.0380143
1702484091.027132000 0 1 1 1 1 1 -1.22977 -0.581723 1.07846 0.00184006 -0.0449681 -0.0852979 0.437348 -0.0970175 0.107153 0.0297749 0.311636 -0.10638 0.112455 -0.513261 -0.0569626 5.58838e-09 5.58838e-09 5.58649e-09 2.02455e-07 2.02047e-07 2.02483e-07 8.97095e-06 8.97095e-06 8.96262e-06 8.97095e-06 8.97095e-06 8.96262e-06 0.0291694 0.0291694 0.0291595
1702484091.032058000 0 1 1 1 1 1 -1.22765 -0.582124 1.079 0.00206259 -0.0436779 -0.0866572 0.439017 -0.090019 0.111206 0.0347179 0.304685 -0.178938 0.290806 0.200658 0.308955 5.89538e-09 5.89538e-09 5.89326e-09 2.21127e-07 2.20705e-07 2.21155e-07 9.50667e-06 9.50667e-06 9.49787e-06 9.50667e-06 9.50667e-06 9.49787e-06 0.0380217 0.0380217 0.0380118
1702484091.037198000 0 1 1 1 1 1 -1.22556 -0.582586 1.07952 0.00225347 -0.0422104 -0.0876119 0.427907 -0.0916434 0.110078 0.0319565 0.319703 -0.157286 -0.483564 -0.110733 0.262323 5.60969e-09 5.60969e-09 5.60778e-09 2.03643e-07 2.03281e-07 2.03671e-07 9.00631e-06 9.00631e-06 8.99798e-06 9.00631e-06 9.00631e-06 8.99798e-06 0.0296148 0.0296148 0.0296049
1702484091.042058000 0 1 1 1 1 1 -1.2235 -0.58306 1.08001 0.0023096 -0.0407883 -0.0879508 0.431008 -0.0972302 0.107137 0.0239886 0.327791 -0.110304 0.0607817 -0.506391 -0.0435609 5.89534e-09 5.89534e-09 5.89322e-09 2.21146e-07 2.20779e-07 2.21175e-07 9.50733e-06 9.50733e-06 9.49852e-06 9.50733e-06 9.50733e-06 9.49852e-06 0.0380495 0.0380495 0.0380395
1702484091.047059000 0 1 1 1 1 1 -1.22141 -0.583454 1.08055 0.00252604 -0.0394286 -0.0894985 0.431652 -0.089199 0.109796 0.028146 0.323406 -0.193276 0.196724 0.245719 0.193961 5.89563e-09 5.89563e-09 5.89351e-09 2.21129e-07 2.20786e-07 2.21158e-07 9.50788e-06 9.50788e-06 9.49907e-06 9.50788e-06 9.50788e-06 9.49907e-06 0.0380015 0.0380015 0.0379915
1702484091.052043000 0 1 1 1 1 1 -1.21938 -0.583907 1.08107 0.00266605 -0.0378841 -0.0903746 0.422711 -0.09096 0.109413 0.0278696 0.33737 -0.167439 -0.420607 -0.0410137 0.192751 5.89004e-09 5.89004e-09 5.88793e-09 2.20665e-07 2.20349e-07 2.20693e-07 9.49701e-06 9.49701e-06 9.48824e-06 9.49701e-06 9.49701e-06 9.48824e-06 0.0376919 0.0376919 0.037682
1702484091.057151000 0 1 1 1 1 1 -1.21724 -0.58439 1.08158 0.00278921 -0.0364005 -0.0908687 0.4278 -0.0951335 0.107564 0.0245707 0.345627 -0.131459 0.326087 -0.303662 0.0113265 5.59425e-09 5.59425e-09 5.59235e-09 2.02691e-07 2.02423e-07 2.02718e-07 8.98154e-06 8.98154e-06 8.97321e-06 8.98154e-06 8.98154e-06 8.97321e-06 0.0292514 0.0292514 0.0292415
1702484091.062059000 0 1 1 1 1 1 -1.21522 -0.584786 1.08211 0.00289198 -0.0350071 -0.0924041 0.426094 -0.0882373 0.109511 0.0224886 0.335067 -0.208332 0.166622 0.313059 0.15891 5.89534e-09 5.89534e-09 5.89323e-09 2.21001e-07 2.20731e-07 2.21029e-07 9.50779e-06 9.50779e-06 9.49897e-06 9.50779e-06 9.50779e-06 9.49897e-06 0.0379826 0.0379826 0.0379726
1702484091.067041000 0 1 1 1 1 1 -1.21323 -0.58525 1.08263 0.00300206 -0.0334794 -0.0930732 0.417672 -0.092264 0.109407 0.0217129 0.342735 -0.158211 -0.338947 -0.164163 0.203825 5.88921e-09 5.88921e-09 5.8871e-09 2.20548e-07 2.20301e-07 2.20576e-07 9.49618e-06 9.49618e-06 9.48741e-06 9.49618e-06 9.49618e-06 9.48741e-06 0.0377171 0.0377171 0.0377073
1702484091.072060000 0 1 1 1 1 1 -1.21114 -0.585729 1.08313 0.0030915 -0.0318857 -0.0935758 0.423001 -0.0960027 0.106441 0.0213361 0.355754 -0.127302 0.312107 -0.362102 -0.0761459 5.89577e-09 5.89577e-09 5.89366e-09 2.20972e-07 2.20748e-07 2.21e-07 9.50844e-06 9.50844e-06 9.49965e-06 9.50844e-06 9.50844e-06 9.49965e-06 0.0379735 0.0379735 0.0379635
1702484091.077062000 0 1 1 1 1 1 -1.20912 -0.586125 1.08366 0.00320959 -0.030431 -0.0952764 0.419976 -0.0884233 0.107964 0.0201583 0.350636 -0.212734 0.0889751 0.281869 0.0492099 5.89634e-09 5.89634e-09 5.89423e-09 2.21063e-07 2.20858e-07 2.21091e-07 9.51051e-06 9.51051e-06 9.50169e-06 9.51051e-06 9.51051e-06 9.50169e-06 0.038112 0.038112 0.038102
1702484091.082046000 0 1 1 1 1 1 -1.20713 -0.586604 1.0842 0.00328728 -0.0289132 -0.0958118 0.413305 -0.0938287 0.111139 0.0173734 0.349718 -0.148805 -0.304512 -0.27615 0.361692 5.89091e-09 5.89091e-09 5.8888e-09 2.20672e-07 2.20488e-07 2.207e-07 9.50031e-06 9.50031e-06 9.49154e-06 9.50031e-06 9.50031e-06 9.49154e-06 0.0378625 0.0378625 0.0378526
1702484091.087062000 0 1 1 1 1 1 -1.20508 -0.587065 1.0847 0.00336788 -0.027343 -0.0965607 0.418775 -0.0952518 0.108033 0.0182231 0.356881 -0.147544 0.364442 -0.263325 0.0833667 5.89631e-09 5.89631e-09 5.8942e-09 2.21055e-07 2.20891e-07 2.21083e-07 9.51101e-06 9.51101e-06 9.50221e-06 9.51101e-06 9.51101e-06 9.50221e-06 0.0381153 0.0381153 0.0381054
1702484091.092073000 0 1 1 1 1 1 -1.20306 -0.587473 1.08522 0.00342085 -0.0258509 -0.098286 0.41545 -0.0885524 0.106699 0.0131227 0.35393 -0.225574 0.0593068 0.291163 -0.0740936 5.90008e-09 5.90008e-09 5.89797e-09 2.21294e-07 2.21146e-07 2.21322e-07 9.51821e-06 9.51821e-06 9.50938e-06 9.51821e-06 9.51821e-06 9.50938e-06 0.0382288 0.0382288 0.0382188
1702484091.097041000 0 1 1 1 1 1 -1.20111 -0.587958 1.08576 0.00344752 -0.0243804 -0.0986391 0.410063 -0.0952387 0.110599 0.00876406 0.350753 -0.143006 -0.171338 -0.35602 0.293124 5.8891e-09 5.8891e-09 5.88699e-09 2.2055e-07 2.2042e-07 2.20579e-07 9.49836e-06 9.49836e-06 9.48956e-06 9.49836e-06 9.49836e-06 9.48956e-06 0.0378628 0.0378628 0.0378528
1702484091.102156000 0 1 1 1 1 1 -1.19904 -0.588409 1.08628 0.00355863 -0.0228636 -0.0997943 0.415406 -0.0932664 0.110262 0.0124439 0.351676 -0.184247 0.434986 -0.0295753 0.275534 5.59572e-09 5.59572e-09 5.59382e-09 2.02738e-07 2.02633e-07 2.02766e-07 8.98652e-06 8.98652e-06 8.97818e-06 8.98652e-06 8.98652e-06 8.97818e-06 0.0295127 0.0295127 0.0295027
1702484091.107059000 0 1 1 1 1 1 -1.19709 -0.588828 1.08678 0.00352503 -0.0212809 -0.10121 0.410734 -0.0896581 0.107085 0.00723707 0.359036 -0.221509 0.00611475 0.219116 -0.052499 5.89531e-09 5.89531e-09 5.8932e-09 2.21036e-07 2.20937e-07 2.21065e-07 9.51174e-06 9.51174e-06 9.50291e-06 9.51174e-06 9.51174e-06 9.50291e-06 0.038184 0.038184 0.0381739
1702484091.112063000 0 1 1 1 1 1 -1.19511 -0.589329 1.08733 0.00348859 -0.0198174 -0.101515 0.407363 -0.0969428 0.111073 -9.59429e-05 0.351585 -0.136218 -0.101338 -0.440337 0.290198 5.89668e-09 5.89668e-09 5.89457e-09 2.21137e-07 2.21051e-07 2.21165e-07 9.51493e-06 9.51493e-06 9.50609e-06 9.51493e-06 9.51493e-06 9.50609e-06 0.038238 0.038238 0.038228
1702484091.117072000 0 1 1 1 1 1 -1.19309 -0.58977 1.08785 0.00356561 -0.0183133 -0.102696 0.412958 -0.094663 0.110594 0.00721251 0.350729 -0.179934 0.48017 -0.10404 0.259899 5.89985e-09 5.89985e-09 5.89773e-09 2.21363e-07 2.21289e-07 2.21391e-07 9.52158e-06 9.52157e-06 9.51274e-06 9.52158e-06 9.52157e-06 9.51274e-06 0.0383793 0.0383793 0.0383693
1702484091.122066000 0 1 1 1 1 1 -1.19114 -0.590194 1.08835 0.00354166 -0.0167873 -0.104244 0.407276 -0.0902819 0.106633 0.00283414 0.355404 -0.22411 -0.0311973 0.206232 -0.119627 5.8978e-09 5.8978e-09 5.89568e-09 2.21215e-07 2.21153e-07 2.21243e-07 9.51827e-06 9.51827e-06 9.50942e-06 9.51827e-06 9.51827e-06 9.50942e-06 0.0383004 0.0383004 0.0382904
1702484091.127076000 0 1 1 1 1 1 -1.18918 -0.590697 1.08889 0.0034919 -0.0154061 -0.104498 0.405567 -0.0979577 0.109804 -0.00300524 0.345254 -0.136931 0.0469506 -0.464931 0.14355 5.90123e-09 5.90123e-09 5.8991e-09 2.21449e-07 2.21397e-07 2.21478e-07 9.52522e-06 9.52522e-06 9.51635e-06 9.52522e-06 9.52522e-06 9.51635e-06 0.0384333 0.0384333 0.0384232
1702484091.132058000 0 1 1 1 1 1 -1.18716 -0.591134 1.08943 0.00351641 -0.0139855 -0.10589 0.411332 -0.0942703 0.112232 0.000146495 0.339427 -0.1984 0.546825 -0.00892309 0.363962 5.89512e-09 5.89512e-09 5.893e-09 2.21001e-07 2.20958e-07 2.21029e-07 9.51387e-06 9.51387e-06 9.50503e-06 9.51387e-06 9.51387e-06 9.50503e-06 0.0381648 0.0381648 0.0381547
1702484091.137154000 0 1 1 1 1 1 -1.18522 -0.591584 1.08995 0.00349727 -0.0125101 -0.107162 0.403062 -0.0927933 0.109728 -0.0023528 0.345705 -0.198865 -0.138693 0.00435264 0.17504 5.59538e-09 5.59538e-09 5.59349e-09 2.02722e-07 2.02691e-07 2.02749e-07 8.98952e-06 8.98952e-06 8.98117e-06 8.98952e-06 8.98952e-06 8.98117e-06 0.0296542 0.0296542 0.0296443
1702484091.142058000 0 1 1 1 1 1 -1.18327 -0.592077 1.09045 0.0033673 -0.0111193 -0.107548 0.404658 -0.0993454 0.108245 -0.0098285 0.339721 -0.135734 0.166261 -0.52324 -0.0092978 5.89527e-09 5.89527e-09 5.89315e-09 2.21335e-07 2.21308e-07 2.21363e-07 9.51963e-06 9.51963e-06 9.51078e-06 9.51963e-06 9.51963e-06 9.51078e-06 0.0387488 0.0387488 0.0387387
1702484091.147073000 0 1 1 1 1 1 -1.18128 -0.592504 1.091 0.0033616 -0.00978678 -0.109121 0.408962 -0.0939019 0.111101 -0.00714408 0.329294 -0.213137 0.543515 0.0684768 0.256949 5.90066e-09 5.90066e-09 5.89854e-09 2.2191e-07 2.21889e-07 2.21938e-07 9.53275e-06 9.53275e-06 9.5239e-06 9.53275e-06 9.53275e-06 9.5239e-06 0.0390874 0.0390874 0.0390773
1702484091.152058000 0 1 1 1 1 1 -1.17936 -0.592952 1.09151 0.0032595 -0.00833578 -0.110331 0.401928 -0.0927124 0.109608 -0.011344 0.337282 -0.209406 -0.0838885 0.0663319 0.148411 5.89566e-09 5.89566e-09 5.89354e-09 2.21627e-07 2.21612e-07 2.21654e-07 9.525e-06 9.525e-06 9.51618e-06 9.525e-06 9.525e-06 9.51618e-06 0.038842 0.0388421 0.038832
1702484091.157081000 0 1 1 1 1 1 -1.17739 -0.59346 1.09203 0.0031178 -0.00707705 -0.110705 0.404002 -0.0999573 0.108342 -0.0182984 0.326589 -0.143321 0.295152 -0.506424 0.00318091 5.90359e-09 5.90359e-09 5.90147e-09 2.2218e-07 2.22169e-07 2.22208e-07 9.54143e-06 9.54143e-06 9.53257e-06 9.54143e-06 9.54143e-06 9.53257e-06 0.0390647 0.0390647 0.0390546
1702484091.162057000 0 1 1 1 1 1 -1.17541 -0.593884 1.09257 0.00302991 -0.00587946 -0.112422 0.408015 -0.093647 0.111221 -0.0205493 0.311253 -0.229186 0.564145 0.150488 0.235253 5.89539e-09 5.89539e-09 5.89327e-09 2.21544e-07 2.21537e-07 2.21572e-07 9.52676e-06 9.52676e-06 9.5179e-06 9.52676e-06 9.52676e-06 9.5179e-06 0.0386263 0.0386263 0.0386161
1702484091.167061000 0 1 1 1 1 1 -1.17351 -0.594345 1.0931 0.00291662 -0.00455019 -0.113414 0.400046 -0.0944301 0.111233 -0.0207862 0.314881 -0.198294 -0.0763317 -0.0428035 0.274781 5.89681e-09 5.89681e-09 5.89469e-09 2.21553e-07 2.21549e-07 2.21581e-07 9.52977e-06 9.52978e-06 9.52094e-06 9.52977e-06 9.52978e-06 9.52094e-06 0.0385655 0.0385655 0.0385555
1702484091.172070000 0 1 1 1 1 1 -1.17153 -0.594858 1.0936 0.0027658 -0.0033205 -0.11394 0.404257 -0.101315 0.107727 -0.0241705 0.311742 -0.15073 0.415792 -0.539805 -0.0765092 5.89991e-09 5.89991e-09 5.89779e-09 2.21655e-07 2.21653e-07 2.21683e-07 9.53532e-06 9.53533e-06 9.52646e-06 9.53532e-06 9.53533e-06 9.52646e-06 0.038566 0.038566 0.0385559
1702484091.177129000 0 1 1 1 1 1 -1.16956 -0.595273 1.09413 0.00266201 -0.00226809 -0.115845 0.40463 -0.0927459 0.106985 -0.0286229 0.295242 -0.246424 0.376584 0.282063 -0.181284 5.58793e-09 5.58793e-09 5.58603e-09 2.02445e-07 2.02444e-07 2.02472e-07 8.98657e-06 8.98657e-06 8.97819e-06 8.98657e-06 8.98657e-06 8.97819e-06 0.0294762 0.0294762 0.0294661
1702484091.182071000 0 1 1 1 1 1 -1.16766 -0.595754 1.0947 0.00249302 -0.00105716 -0.116585 0.398518 -0.096298 0.113136 -0.0284745 0.292385 -0.189974 -0.118185 -0.141626 0.410801 5.90043e-09 5.90043e-09 5.89831e-09 2.2145e-07 2.2145e-07 2.21478e-07 9.53387e-06 9.53387e-06 9.52503e-06 9.53387e-06 9.53387e-06 9.52503e-06 0.0383973 0.0383973 0.0383873
1702484091.187060000 0 1 1 1 1 1 -1.1657 -0.596254 1.0952 0.00237481 7.13642e-05 -0.117284 0.404284 -0.101331 0.109662 -0.0259576 0.290258 -0.165213 0.529198 -0.45382 0.107272 5.8969e-09 5.8969e-09 5.89478e-09 2.21096e-07 2.21097e-07 2.21124e-07 9.52534e-06 9.52535e-06 9.51651e-06 9.52534e-06 9.52535e-06 9.51651e-06 0.0381771 0.0381771 0.0381671
1702484091.192121000 0 1 1 1 1 1 -1.16374 -0.596674 1.09572 0.00230657 0.00110047 -0.119131 0.402778 -0.093216 0.107841 -0.0254185 0.282073 -0.243212 0.293581 0.274496 -0.0911588 5.58579e-09 5.58579e-09 5.5839e-09 2.02124e-07 2.02124e-07 2.02151e-07 8.97957e-06 8.97958e-06 8.97121e-06 8.97957e-06 8.97958e-06 8.97121e-06 0.0293111 0.0293112 0.0293011
1702484091.197088000 0 1 1 1 1 1 -1.16183 -0.597179 1.09627 0.00215724 0.00212199 -0.119705 0.398534 -0.0998768 0.11109 -0.0297737 0.270246 -0.164978 -0.00429353 -0.425165 0.190307 5.57534e-09 5.57534e-09 5.57346e-09 2.01515e-07 2.01515e-07 2.01543e-07 8.96076e-06 8.96077e-06 8.95241e-06 8.96076e-06 8.96077e-06 8.95241e-06 0.0291207 0.0291207 0.0291106
1702484091.202091000 0 1 1 1 1 1 -1.15983 -0.597669 1.0968 0.00201785 0.0033283 -0.120712 0.405925 -0.101777 0.111664 -0.0255599 0.279068 -0.177017 0.678268 -0.417084 0.248375 5.90796e-09 5.90796e-09 5.90583e-09 2.2174e-07 2.21738e-07 2.21768e-07 9.54141e-06 9.54142e-06 9.53256e-06 9.54141e-06 9.54142e-06 9.53256e-06 0.0386075 0.0386075 0.0385976
1702484091.207068000 0 1 1 1 1 1 -1.15791 -0.598083 1.0973 0.0018844 0.00427708 -0.122517 0.404026 -0.0936813 0.10753 -0.0292129 0.267056 -0.247261 0.399331 0.276669 -0.140621 5.90013e-09 5.90013e-09 5.89801e-09 2.21321e-07 2.21317e-07 2.21349e-07 9.5274e-06 9.52741e-06 9.51855e-06 9.5274e-06 9.52741e-06 9.51855e-06 0.0385479 0.0385479 0.0385379
1702484091.212052000 0 1 1 1 1 1 -1.156 -0.598593 1.09786 0.00169118 0.00524072 -0.123107 0.398605 -0.100187 0.112019 -0.0359055 0.257374 -0.173258 -0.0137602 -0.376008 0.24566 5.89474e-09 5.89474e-09 5.89262e-09 2.21083e-07 2.21077e-07 2.21111e-07 9.51803e-06 9.51804e-06 9.50919e-06 9.51803e-06 9.51804e-06 9.50919e-06 0.0384555 0.0384555 0.0384454
1702484091.217079000 0 1 1 1 1 1 -1.154 -0.599081 1.09839 0.00156505 0.00625688 -0.124267 0.406558 -0.101582 0.112331 -0.0324606 0.258003 -0.196949 0.737023 -0.327099 0.304765 5.90389e-09 5.90389e-09 5.90177e-09 2.21775e-07 2.21766e-07 2.21803e-07 9.53537e-06 9.53537e-06 9.52654e-06 9.53537e-06 9.53537e-06 9.52654e-06 0.0387853 0.0387853 0.0387753
1702484091.222082000 0 1 1 1 1 1 -1.15206 -0.599507 1.09889 0.00138312 0.00721983 -0.126064 0.404066 -0.0939388 0.106177 -0.0363411 0.256242 -0.256639 0.350313 0.314751 -0.252313 5.90478e-09 5.90478e-09 5.90265e-09 2.21828e-07 2.21817e-07 2.21856e-07 9.5369e-06 9.53691e-06 9.52808e-06 9.5369e-06 9.53691e-06 9.52808e-06 0.0387387 0.0387387 0.0387287
1702484091.227061000 0 1 1 1 1 1 -1.15016 -0.600024 1.09944 0.00115395 0.00806332 -0.126574 0.39954 -0.101623 0.10991 -0.0434818 0.243455 -0.175354 0.0799912 -0.42841 0.0569918 5.89742e-09 5.89742e-09 5.8953e-09 2.21263e-07 2.21249e-07 2.21292e-07 9.52271e-06 9.52272e-06 9.51387e-06 9.52271e-06 9.52272e-06 9.51387e-06 0.0383452 0.0383452 0.0383351
1702484091.232060000 0 1 1 1 1 1 -1.14814 -0.600508 1.1 0.000989021 0.00893956 -0.127897 0.408653 -0.101536 0.114614 -0.0418454 0.238085 -0.211678 0.840504 -0.242832 0.495029 5.89682e-09 5.89682e-09 5.89471e-09 2.21149e-07 2.21131e-07 2.21177e-07 9.52102e-06 9.52103e-06 9.51222e-06 9.52102e-06 9.52103e-06 9.51222e-06 0.0382187 0.0382188 0.0382088
1702484091.237060000 0 1 1 1 1 1 -1.14623 -0.600937 1.10049 0.000778679 0.0097804 -0.129514 0.403566 -0.0948023 0.108752 -0.0444664 0.235009 -0.246241 0.277901 0.265739 0.00521654 5.89667e-09 5.89667e-09 5.89456e-09 2.21047e-07 2.21026e-07 2.21075e-07 9.51979e-06 9.5198e-06 9.51101e-06 9.51979e-06 9.5198e-06 9.51101e-06 0.0381085 0.0381085 0.0380986
1702484091.242061000 0 1 1 1 1 1 -1.14429 -0.601474 1.10101 0.000511829 0.01051 -0.130054 0.40095 -0.103823 0.107342 -0.0521374 0.221561 -0.172018 0.133784 -0.545224 -0.180254 5.89684e-09 5.89684e-09 5.89472e-09 2.20952e-07 2.20927e-07 2.2098e-07 9.51873e-06 9.51874e-06 9.50991e-06 9.51873e-06 9.51874e-06 9.50991e-06 0.038009 0.038009 0.0379989
1702484091.247061000 0 1 1 1 1 1 -1.14229 -0.601937 1.10158 0.000341324 0.0112538 -0.131564 0.409399 -0.100752 0.112711 -0.0491083 0.214238 -0.226144 0.834722 -0.11249 0.306573 5.89682e-09 5.89682e-09 5.89471e-09 2.20843e-07 2.20815e-07 2.20871e-07 9.51688e-06 9.51689e-06 9.50807e-06 9.51688e-06 9.51689e-06 9.50807e-06 0.0379138 0.0379138 0.0379038
1702484091.252062000 0 1 1 1 1 1 -1.14036 -0.60238 1.10209 0.00013218 0.012047 -0.133083 0.4038 -0.095181 0.11052 -0.0486984 0.21681 -0.244797 0.198086 0.270489 0.16353 5.89717e-09 5.89717e-09 5.89506e-09 2.20757e-07 2.20725e-07 2.20785e-07 9.51525e-06 9.51527e-06 9.5065e-06 9.51525e-06 9.51527e-06 9.5065e-06 0.0378294 0.0378294 0.0378196
1702484091.257059000 0 1 1 1 1 1 -1.13842 -0.60292 1.1026 -0.000106875 0.0126616 -0.133645 0.403079 -0.104718 0.107349 -0.0523638 0.202772 -0.177409 0.269225 -0.559086 -0.148494 5.89721e-09 5.89721e-09 5.8951e-09 2.20628e-07 2.20592e-07 2.20656e-07 9.51252e-06 9.51253e-06 9.50372e-06 9.51252e-06 9.51253e-06 9.50372e-06 0.0377306 0.0377306 0.0377207
1702484091.262096000 0 1 1 1 1 1 -1.13638 -0.603384 1.10317 -0.00030641 0.0132462 -0.135304 0.411864 -0.100256 0.112539 -0.0535356 0.188893 -0.239661 0.894294 -0.0128786 0.277916 5.91082e-09 5.91082e-09 5.9087e-09 2.21446e-07 2.21407e-07 2.21475e-07 9.53496e-06 9.53497e-06 9.52613e-06 9.53496e-06 9.53497e-06 9.52613e-06 0.0381655 0.0381655 0.0381555
1702484091.267059000 0 1 1 1 1 1 -1.13449 -0.603834 1.10369 -0.000509284 0.0138986 -0.136613 0.404087 -0.0967739 0.111922 -0.0522882 0.190038 -0.233436 0.140751 0.153351 0.301127 5.89892e-09 5.89893e-09 5.89682e-09 2.20642e-07 2.206e-07 2.2067e-07 9.51115e-06 9.51116e-06 9.50241e-06 9.51115e-06 9.51116e-06 9.50241e-06 0.0378269 0.0378269 0.0378172
1702484091.272081000 0 1 1 1 1 1 -1.1325 -0.604387 1.10419 -0.000732834 0.0144391 -0.137274 0.4058 -0.106535 0.105836 -0.0534822 0.1806 -0.178529 0.371958 -0.640575 -0.27155 5.90696e-09 5.90696e-09 5.90484e-09 2.21201e-07 2.21155e-07 2.2123e-07 9.52421e-06 9.52422e-06 9.51542e-06 9.52421e-06 9.52422e-06 9.51542e-06 0.0381444 0.0381444 0.0381345
1702484091.277108000 0 1 1 1 1 1 -1.13049 -0.604818 1.10472 -0.000856983 0.0148733 -0.13917 0.411621 -0.0975376 0.105597 -0.0525016 0.167932 -0.261075 0.749592 0.2856 -0.363149 5.58455e-09 5.58455e-09 5.58267e-09 2.01823e-07 2.01779e-07 2.01851e-07 8.96247e-06 8.96249e-06 8.95417e-06 8.96247e-06 8.96249e-06 8.95417e-06 0.0292476 0.0292477 0.0292377
1702484091.282099000 0 1 1 1 1 1 -1.12858 -0.605312 1.10529 -0.00105961 0.0153979 -0.140149 0.403951 -0.100068 0.112641 -0.0533951 0.164901 -0.211914 0.0260475 -0.125129 0.355243 5.58196e-09 5.58196e-09 5.58009e-09 2.01777e-07 2.01729e-07 2.01804e-07 8.95788e-06 8.9579e-06 8.94961e-06 8.95788e-06 8.9579e-06 8.94961e-06 0.0292395 0.0292395 0.0292296
1702484091.287040000 0 1 1 1 1 1 -1.1266 -0.60584 1.10579 -0.00126376 0.0158827 -0.141068 0.40872 -0.106659 0.108459 -0.0507582 0.157583 -0.193606 0.520089 -0.594095 -0.00845102 5.89369e-09 5.89369e-09 5.89159e-09 2.20727e-07 2.20672e-07 2.20755e-07 9.50165e-06 9.50167e-06 9.49292e-06 9.50165e-06 9.50167e-06 9.49292e-06 0.0380335 0.0380335 0.0380237
1702484091.292116000 0 1 1 1 1 1 -1.12458 -0.606277 1.10631 -0.00141381 0.0162099 -0.142969 0.412076 -0.0974112 0.106427 -0.0536079 0.146501 -0.264369 0.641814 0.319007 -0.253515 5.58735e-09 5.58735e-09 5.58547e-09 2.02136e-07 2.02083e-07 2.02164e-07 8.96731e-06 8.96733e-06 8.95903e-06 8.96731e-06 8.96733e-06 8.95903e-06 0.0291774 0.0291774 0.0291675
1702484091.297095000 0 1 1 1 1 1 -1.12264 -0.606789 1.10688 -0.00162949 0.0166127 -0.143876 0.405362 -0.101854 0.112759 -0.0567058 0.142148 -0.206795 -0.00517723 -0.24118 0.325139 5.58042e-09 5.58042e-09 5.57855e-09 2.01746e-07 2.0169e-07 2.01774e-07 8.95646e-06 8.95648e-06 8.94817e-06 8.95646e-06 8.95648e-06 8.94817e-06 0.0289651 0.0289651 0.028955
1702484091.302119000 0 1 1 1 1 1 -1.1206 -0.607324 1.10741 -0.00182477 0.0169968 -0.144961 0.412341 -0.107647 0.11075 -0.0529446 0.134894 -0.203927 0.651686 -0.60217 0.166212 5.92016e-09 5.92017e-09 5.91804e-09 2.22481e-07 2.22417e-07 2.22509e-07 9.55207e-06 9.55209e-06 9.54329e-06 9.55207e-06 9.55209e-06 9.54329e-06 0.0388378 0.0388378 0.0388279
1702484091.307058000 0 1 1 1 1 1 -1.11862 -0.607747 1.1079 -0.00201231 0.0172554 -0.146778 0.415295 -0.0982447 0.106414 -0.0567609 0.125415 -0.264219 0.731487 0.270232 -0.267486 5.89911e-09 5.89912e-09 5.89701e-09 2.2092e-07 2.20855e-07 2.20949e-07 9.51189e-06 9.51191e-06 9.50309e-06 9.51189e-06 9.51191e-06 9.50309e-06 0.0379019 0.037902 0.0378919
1702484091.312084000 0 1 1 1 1 1 -1.11666 -0.608258 1.1085 -0.0022156 0.0175667 -0.147743 0.407595 -0.101407 0.114763 -0.0580362 0.12222 -0.215375 0.0170467 -0.140061 0.466252 5.90788e-09 5.90789e-09 5.90577e-09 2.21472e-07 2.21404e-07 2.21501e-07 9.5279e-06 9.52792e-06 9.5191e-06 9.5279e-06 9.52792e-06 9.5191e-06 0.0382159 0.0382159 0.0382059
1702484091.317083000 0 1 1 1 1 1 -1.11464 -0.608791 1.10901 -0.00236134 0.0178097 -0.148906 0.415189 -0.10734 0.112572 -0.053884 0.116065 -0.217475 0.747695 -0.512237 0.321944 5.90752e-09 5.90752e-09 5.90541e-09 2.21364e-07 2.21294e-07 2.21392e-07 9.52595e-06 9.52597e-06 9.51719e-06 9.52595e-06 9.52597e-06 9.51719e-06 0.0381196 0.0381196 0.0381098
1702484091.322095000 0 1 1 1 1 1 -1.11261 -0.609224 1.10949 -0.00254103 0.0180381 -0.150742 0.417166 -0.0976031 0.103882 -0.0560317 0.111109 -0.270557 0.677647 0.360743 -0.4818 5.9117e-09 5.91171e-09 5.90958e-09 2.21667e-07 2.21595e-07 2.21696e-07 9.53375e-06 9.53377e-06 9.52495e-06 9.53375e-06 9.53377e-06 9.52495e-06 0.0384006 0.0384006 0.0383907
1702484091.327054000 0 1 1 1 1 1 -1.11069 -0.609741 1.11007 -0.00273053 0.0182579 -0.151583 0.409796 -0.103055 0.111515 -0.0578703 0.106922 -0.211739 0.0730416 -0.249844 0.165544 5.89781e-09 5.89781e-09 5.8957e-09 2.2073e-07 2.20656e-07 2.20759e-07 9.50729e-06 9.50731e-06 9.49849e-06 9.50729e-06 9.50731e-06 9.49849e-06 0.0378876 0.0378876 0.0378776
1702484091.332086000 0 1 1 1 1 1 -1.1086 -0.610274 1.11064 -0.00285666 0.0184275 -0.152903 0.419308 -0.107424 0.116152 -0.0528367 0.100208 -0.227291 0.88411 -0.461903 0.617411 5.9089e-09 5.90891e-09 5.90679e-09 2.21552e-07 2.21477e-07 2.21581e-07 9.52804e-06 9.52805e-06 9.51927e-06 9.52804e-06 9.52805e-06 9.51927e-06 0.0383895 0.0383895 0.0383797
1702484091.337109000 0 1 1 1 1 1 -1.10662 -0.610703 1.11113 -0.00296194 0.0185177 -0.154589 0.415953 -0.0976061 0.110107 -0.0514851 0.0942467 -0.256079 0.387019 0.365664 0.110044 5.58476e-09 5.58477e-09 5.58288e-09 2.01841e-07 2.01772e-07 2.01868e-07 8.96138e-06 8.9614e-06 8.95314e-06 8.96138e-06 8.9614e-06 8.95314e-06 0.0289363 0.0289364 0.0289266
1702484091.342090000 0 1 1 1 1 1 -1.10463 -0.611241 1.11166 -0.00319992 0.0187003 -0.155444 0.411934 -0.104733 0.108854 -0.0569066 0.0903965 -0.205353 0.0580816 -0.354526 -0.0865853 5.91027e-09 5.91027e-09 5.90815e-09 2.21645e-07 2.21567e-07 2.21674e-07 9.52971e-06 9.52973e-06 9.52089e-06 9.52971e-06 9.52973e-06 9.52089e-06 0.0383923 0.0383923 0.0383823
1702484091.347072000 0 1 1 1 1 1 -1.10258 -0.611746 1.11222 -0.00329709 0.0187776 -0.156943 0.421513 -0.106219 0.11435 -0.0523324 0.0830334 -0.240713 0.891757 -0.319983 0.44114 5.90402e-09 5.90403e-09 5.90191e-09 2.21215e-07 2.21137e-07 2.21244e-07 9.51789e-06 9.5179e-06 9.50912e-06 9.51789e-06 9.5179e-06 9.50912e-06 0.0381515 0.0381516 0.0381417
1702484091.352110000 0 1 1 1 1 1 -1.10058 -0.612193 1.11273 -0.00339876 0.0188053 -0.15852 0.416835 -0.0987294 0.11172 -0.0522077 0.0786024 -0.250194 0.295335 0.257326 0.284497 5.58487e-09 5.58487e-09 5.58299e-09 2.01854e-07 2.01782e-07 2.01881e-07 8.96116e-06 8.96118e-06 8.95293e-06 8.96116e-06 8.96118e-06 8.95293e-06 0.0288974 0.0288975 0.0288877
1702484091.357105000 0 1 1 1 1 1 -1.09856 -0.612744 1.11323 -0.00355978 0.0188512 -0.159495 0.41609 -0.107531 0.105328 -0.0538023 0.0733041 -0.21126 0.288944 -0.580183 -0.386762 5.58313e-09 5.58314e-09 5.58126e-09 2.0175e-07 2.01679e-07 2.01778e-07 8.9583e-06 8.95831e-06 8.95003e-06 8.9583e-06 8.95831e-06 8.95003e-06 0.0288563 0.0288563 0.0288464
1702484091.362087000 0 1 1 1 1 1 -1.0965 -0.613215 1.11379 -0.00366603 0.018863 -0.161226 0.42404 -0.103399 0.110634 -0.0530241 0.0674974 -0.266939 0.930526 -0.0249693 0.0872847 5.57723e-09 5.57724e-09 5.57536e-09 2.01483e-07 2.01411e-07 2.01511e-07 8.94932e-06 8.94934e-06 8.94104e-06 8.94932e-06 8.94934e-06 8.94104e-06 0.0289439 0.0289439 0.0289339
1702484091.367051000 0 1 1 1 1 1 -1.0945 -0.613678 1.11432 -0.00381161 0.0189461 -0.162606 0.420275 -0.0986153 0.110483 -0.0509474 0.0660004 -0.257868 0.381345 0.295885 0.163863 5.89637e-09 5.89638e-09 5.89427e-09 2.20803e-07 2.20724e-07 2.20831e-07 9.50515e-06 9.50517e-06 9.49645e-06 9.50515e-06 9.50517e-06 9.49645e-06 0.0379846 0.0379847 0.0379749
1702484091.372103000 0 1 1 1 1 1 -1.09247 -0.614234 1.11483 -0.00390369 0.0188563 -0.163642 0.419287 -0.107786 0.1076 -0.0503807 0.0576404 -0.222723 0.412497 -0.559349 -0.117033 5.58228e-09 5.58228e-09 5.5804e-09 2.01787e-07 2.01715e-07 2.01814e-07 8.95803e-06 8.95804e-06 8.94979e-06 8.95803e-06 8.95804e-06 8.94979e-06 0.0289467 0.0289468 0.0289369
1702484091.377083000 0 1 1 1 1 1 -1.09038 -0.614719 1.11539 -0.00404406 0.0188485 -0.165328 0.426832 -0.10474 0.111459 -0.0513508 0.0529426 -0.2672 0.925469 -0.119496 0.184581 5.90728e-09 5.90729e-09 5.90517e-09 2.2153e-07 2.21451e-07 2.21559e-07 9.52576e-06 9.52578e-06 9.51698e-06 9.52576e-06 9.52578e-06 9.51698e-06 0.0383278 0.0383278 0.0383178
1702484091.382113000 0 1 1 1 1 1 -1.08838 -0.615187 1.11593 -0.00411268 0.0187655 -0.166658 0.419988 -0.100563 0.112853 -0.0504146 0.0510876 -0.242003 0.183979 0.109894 0.406235 5.58535e-09 5.58536e-09 5.58348e-09 2.01931e-07 2.0186e-07 2.01958e-07 8.96345e-06 8.96348e-06 8.95523e-06 8.96345e-06 8.96348e-06 8.95523e-06 0.0289346 0.0289346 0.0289248
1702484091.387049000 0 1 1 1 1 1 -1.08635 -0.615728 1.11641 -0.00426097 0.0187214 -0.167774 0.421091 -0.107933 0.106977 -0.0504912 0.0457695 -0.22595 0.337822 -0.520975 -0.146159 5.8955e-09 5.8955e-09 5.8934e-09 2.20631e-07 2.20554e-07 2.2066e-07 9.50301e-06 9.50303e-06 9.49429e-06 9.50301e-06 9.50303e-06 9.49429e-06 0.0377455 0.0377455 0.0377356
1702484091.392086000 0 1 1 1 1 1 -1.08421 -0.616211 1.11697 -0.00434903 0.0185635 -0.169629 0.430113 -0.103861 0.109823 -0.0512113 0.037212 -0.278406 0.961484 -0.0186542 0.0451433 5.90817e-09 5.90817e-09 5.90606e-09 2.21497e-07 2.21421e-07 2.21526e-07 9.52685e-06 9.52687e-06 9.51806e-06 9.52685e-06 9.52687e-06 9.51806e-06 0.0382797 0.0382797 0.0382697
1702484091.397100000 0 1 1 1 1 1 -1.08221 -0.616681 1.11752 -0.00444617 0.0184537 -0.170883 0.423262 -0.100181 0.113221 -0.0507368 0.0360055 -0.249275 0.248923 0.165839 0.407648 5.91296e-09 5.91296e-09 5.91085e-09 2.21829e-07 2.21753e-07 2.21857e-07 9.53573e-06 9.53575e-06 9.52699e-06 9.53573e-06 9.53575e-06 9.52699e-06 0.0384915 0.0384916 0.0384818
1702484091.402080000 0 1 1 1 1 1 -1.08015 -0.617239 1.11802 -0.00456532 0.0182896 -0.172076 0.42463 -0.109114 0.107648 -0.0515059 0.0312205 -0.234752 0.417281 -0.579239 -0.100972 5.90618e-09 5.90618e-09 5.90407e-09 2.2137e-07 2.21296e-07 2.21398e-07 9.52297e-06 9.52299e-06 9.51422e-06 9.52297e-06 9.52299e-06 9.51422e-06 0.0382535 0.0382535 0.0382437
1702484091.407088000 0 1 1 1 1 1 -1.07805 -0.617702 1.11855 -0.00468076 0.0180714 -0.173946 0.431427 -0.103021 0.108415 -0.0548393 0.0248941 -0.283419 0.875041 0.0660243 -0.0937611 5.90897e-09 5.90898e-09 5.90686e-09 2.21546e-07 2.21473e-07 2.21575e-07 9.52777e-06 9.5278e-06 9.51896e-06 9.52777e-06 9.5278e-06 9.51896e-06 0.0383248 0.0383249 0.0383148
1702484091.412121000 0 1 1 1 1 1 -1.07603 -0.618196 1.11911 -0.00473359 0.0178238 -0.175089 0.423854 -0.102899 0.111797 -0.0536541 0.0212669 -0.237292 0.13387 -0.0851878 0.225476 5.588e-09 5.58801e-09 5.58613e-09 2.02012e-07 2.01947e-07 2.0204e-07 8.96685e-06 8.96687e-06 8.95855e-06 8.96685e-06 8.96687e-06 8.95855e-06 0.0289556 0.0289557 0.0289457
1702484091.417090000 0 1 1 1 1 1 -1.07393 -0.618734 1.11965 -0.00479527 0.0175584 -0.176617 0.42965 -0.108803 0.113763 -0.0509972 0.012285 -0.261379 0.698353 -0.522795 0.448577 5.57801e-09 5.57802e-09 5.57615e-09 2.01468e-07 2.01405e-07 2.01495e-07 8.9502e-06 8.95022e-06 8.94195e-06 8.9502e-06 8.95022e-06 8.94195e-06 0.0287955 0.0287955 0.0287856
1702484091.422113000 0 1 1 1 1 1 -1.07185 -0.619188 1.12015 -0.00488026 0.017334 -0.178299 0.431544 -0.100984 0.107628 -0.0510673 0.0125029 -0.279921 0.690292 0.251348 -0.156338 5.58538e-09 5.58539e-09 5.58351e-09 2.01857e-07 2.01796e-07 2.01885e-07 8.96211e-06 8.96214e-06 8.95384e-06 8.96211e-06 8.96214e-06 8.95384e-06 0.0288832 0.0288832 0.0288733
1702484091.427062000 0 1 1 1 1 1 -1.06982 -0.619688 1.12071 -0.00501872 0.0171411 -0.179414 0.4264 -0.102041 0.112573 -0.0534582 0.0110611 -0.242709 0.151304 0.0172649 0.271876 5.90005e-09 5.90006e-09 5.89795e-09 2.2088e-07 2.20815e-07 2.20909e-07 9.50989e-06 9.50991e-06 9.50111e-06 9.50989e-06 9.50991e-06 9.50111e-06 0.0379296 0.0379296 0.0379197
1702484091.432071000 0 1 1 1 1 1 -1.0677 -0.62024 1.12125 -0.00506716 0.0168301 -0.180948 0.431185 -0.109162 0.112556 -0.0500615 0.00288997 -0.261651 0.599329 -0.523939 0.298765 5.90308e-09 5.90308e-09 5.90097e-09 2.21117e-07 2.21055e-07 2.21146e-07 9.51584e-06 9.51586e-06 9.50708e-06 9.51584e-06 9.51586e-06 9.50708e-06 0.0381023 0.0381023 0.0380925
1702484091.437075000 0 1 1 1 1 1 -1.0656 -0.62069 1.12174 -0.00513709 0.0165663 -0.182694 0.434618 -0.101401 0.107405 -0.0502082 0.00382369 -0.284664 0.743479 0.201337 -0.173042 5.90441e-09 5.90441e-09 5.9023e-09 2.21188e-07 2.21127e-07 2.21217e-07 9.51794e-06 9.51796e-06 9.50916e-06 9.51794e-06 9.51796e-06 9.50916e-06 0.0381077 0.0381077 0.0380978
1702484091.442072000 0 1 1 1 1 1 -1.06355 -0.621196 1.12231 -0.00522482 0.0162948 -0.183788 0.428025 -0.102844 0.111734 -0.0526941 0.00300088 -0.240829 0.101071 -0.0551642 0.191591 5.90335e-09 5.90336e-09 5.90124e-09 2.21057e-07 2.20998e-07 2.21086e-07 9.51512e-06 9.51514e-06 9.50634e-06 9.51512e-06 9.51514e-06 9.50634e-06 0.03798 0.0379801 0.0379701
1702484091.447065000 0 1 1 1 1 1 -1.06144 -0.621731 1.12284 -0.00522134 0.0159788 -0.185459 0.433649 -0.10828 0.112723 -0.0463492 -0.00246215 -0.27334 0.655877 -0.438745 0.314962 5.90097e-09 5.90097e-09 5.89886e-09 2.20812e-07 2.20756e-07 2.20841e-07 9.50949e-06 9.5095e-06 9.50074e-06 9.50949e-06 9.5095e-06 9.50074e-06 0.037791 0.037791 0.0377812
1702484091.452058000 0 1 1 1 1 1 -1.05932 -0.622183 1.12334 -0.00520439 0.0157093 -0.187137 0.436337 -0.100486 0.107141 -0.0400724 -0.00112998 -0.284383 0.68482 0.266269 -0.188126 5.8985e-09 5.8985e-09 5.89639e-09 2.20612e-07 2.20557e-07 2.2064e-07 9.50436e-06 9.50438e-06 9.49561e-06 9.50436e-06 9.50438e-06 9.49561e-06 0.0377026 0.0377027 0.0376928
1702484091.457076000 0 1 1 1 1 1 -1.05727 -0.622698 1.12389 -0.00526458 0.0153919 -0.188255 0.429845 -0.10375 0.110009 -0.0444393 -0.00434238 -0.24549 0.134429 -0.149022 0.0472973 5.90456e-09 5.90456e-09 5.90245e-09 2.20982e-07 2.20929e-07 2.21011e-07 9.51472e-06 9.51474e-06 9.50594e-06 9.51472e-06 9.51474e-06 9.50594e-06 0.0378986 0.0378986 0.0378887
1702484091.462140000 0 1 1 1 1 1 -1.05512 -0.623218 1.12443 -0.00521567 0.0149577 -0.19014 0.436835 -0.106005 0.111699 -0.0430965 -0.0130166 -0.291274 0.789066 -0.236384 0.215869 5.59366e-09 5.59367e-09 5.59178e-09 2.02121e-07 2.02076e-07 2.0215e-07 8.97238e-06 8.9724e-06 8.96409e-06 8.97238e-06 8.9724e-06 8.96409e-06 0.0287819 0.0287819 0.028772
1702484091.467059000 0 1 1 1 1 1 -1.05304 -0.623675 1.12494 -0.00519038 0.0146979 -0.191564 0.436881 -0.100255 0.109057 -0.0359472 -0.0120241 -0.276691 0.586741 0.24956 0.00686577 5.8985e-09 5.89851e-09 5.8964e-09 2.20531e-07 2.20483e-07 2.20559e-07 9.50199e-06 9.50201e-06 9.49326e-06 9.50199e-06 9.50201e-06 9.49326e-06 0.0376858 0.0376858 0.037676
1702484091.472072000 0 1 1 1 1 1 -1.05095 -0.624201 1.12547 -0.00521952 0.0143665 -0.192758 0.431746 -0.104527 0.10854 -0.0393123 -0.0117038 -0.247255 0.12154 -0.221863 -0.0720885 5.90289e-09 5.9029e-09 5.90079e-09 2.20813e-07 2.20767e-07 2.20842e-07 9.50934e-06 9.50936e-06 9.50058e-06 9.50934e-06 9.50936e-06 9.50058e-06 0.0378261 0.0378261 0.0378162
1702484091.477152000 0 1 1 1 1 1 -1.04877 -0.624714 1.12603 -0.00515788 0.0138952 -0.194748 0.439335 -0.105523 0.110879 -0.0399725 -0.0201112 -0.299453 0.808767 -0.193751 0.139817 5.59735e-09 5.59736e-09 5.59547e-09 2.02296e-07 2.02257e-07 2.02325e-07 8.97659e-06 8.9766e-06 8.9683e-06 8.97659e-06 8.9766e-06 8.9683e-06 0.0288446 0.0288446 0.0288347
1702484091.482058000 0 1 1 1 1 1 -1.0467 -0.625169 1.12654 -0.00509108 0.0136016 -0.196072 0.438262 -0.0999096 0.110015 -0.0310148 -0.0200919 -0.272721 0.524582 0.264982 0.0921245 5.898e-09 5.898e-09 5.89589e-09 2.20428e-07 2.20387e-07 2.20457e-07 9.49857e-06 9.4986e-06 9.48985e-06 9.49857e-06 9.4986e-06 9.48985e-06 0.0375719 0.037572 0.0375622
1702484091.487066000 0 1 1 1 1 1 -1.04462 -0.625696 1.12707 -0.00510313 0.013236 -0.197368 0.433649 -0.105003 0.108961 -0.0348496 -0.0195936 -0.25698 0.179096 -0.268645 -0.0100333 5.90061e-09 5.90061e-09 5.8985e-09 2.20659e-07 2.2062e-07 2.20688e-07 9.50397e-06 9.50399e-06 9.49522e-06 9.50397e-06 9.50399e-06 9.49522e-06 0.0378246 0.0378246 0.0378148
1702484091.492071000 0 1 1 1 1 1 -1.04245 -0.626211 1.12762 -0.00509815 0.0127892 -0.199328 0.440824 -0.10668 0.111607 -0.0397105 -0.0265037 -0.303795 0.756614 -0.290959 0.208208 5.9022e-09 5.90221e-09 5.9001e-09 2.2091e-07 2.20874e-07 2.20939e-07 9.50848e-06 9.5085e-06 9.49972e-06 9.50848e-06 9.5085e-06 9.49972e-06 0.0380677 0.0380678 0.0380579
1702484091.497072000 0 1 1 1 1 1 -1.04035 -0.626664 1.12814 -0.0050294 0.0124377 -0.200632 0.438808 -0.100229 0.110702 -0.0352083 -0.0243027 -0.268083 0.453961 0.22253 0.159312 5.90254e-09 5.90254e-09 5.90043e-09 2.2099e-07 2.20955e-07 2.21018e-07 9.50957e-06 9.50959e-06 9.50083e-06 9.50957e-06 9.50959e-06 9.50083e-06 0.0380737 0.0380737 0.0380639
1702484091.502061000 0 1 1 1 1 1 -1.03825 -0.627197 1.12866 -0.0050244 0.0120806 -0.202065 0.4354 -0.105878 0.109196 -0.0358955 -0.0213428 -0.266037 0.173274 -0.332234 0.00449343 5.89868e-09 5.89869e-09 5.89658e-09 2.20718e-07 2.20686e-07 2.20747e-07 9.50243e-06 9.50245e-06 9.49368e-06 9.50243e-06 9.50245e-06 9.49368e-06 0.0378525 0.0378525 0.0378426
1702484091.507084000 0 1 1 1 1 1 -1.03608 -0.627697 1.1292 -0.00502445 0.0116443 -0.204016 0.442098 -0.1057 0.110691 -0.0390642 -0.0259387 -0.305826 0.744048 -0.206475 0.116506 5.90643e-09 5.90644e-09 5.90432e-09 2.21214e-07 2.21184e-07 2.21243e-07 9.51689e-06 9.51691e-06 9.5081e-06 9.51689e-06 9.51691e-06 9.5081e-06 0.0380778 0.0380779 0.0380679
1702484091.512073000 0 1 1 1 1 1 -1.03396 -0.628155 1.12974 -0.00496848 0.0113025 -0.205263 0.439936 -0.0998359 0.111269 -0.035923 -0.0230146 -0.2642 0.39225 0.244574 0.182473 5.90258e-09 5.90258e-09 5.90047e-09 2.20882e-07 2.20854e-07 2.20911e-07 9.50931e-06 9.50933e-06 9.50055e-06 9.50931e-06 9.50933e-06 9.50055e-06 0.0378416 0.0378416 0.0378318
1702484091.517071000 0 1 1 1 1 1 -1.03187 -0.628687 1.13026 -0.00493771 0.0109639 -0.206853 0.437138 -0.105984 0.110157 -0.0339663 -0.020006 -0.279128 0.232595 -0.347401 0.0895286 5.90177e-09 5.90177e-09 5.89966e-09 2.2078e-07 2.20753e-07 2.20808e-07 9.5076e-06 9.50762e-06 9.49884e-06 9.5076e-06 9.50762e-06 9.49884e-06 0.0377809 0.0377809 0.037771
1702484091.522071000 0 1 1 1 1 1 -1.02968 -0.629183 1.13079 -0.00493468 0.0105687 -0.20879 0.444324 -0.104964 0.110073 -0.037025 -0.0213892 -0.311197 0.77615 -0.148599 0.0569953 5.90168e-09 5.90168e-09 5.89957e-09 2.20719e-07 2.20694e-07 2.20748e-07 9.50686e-06 9.50688e-06 9.49808e-06 9.50686e-06 9.50688e-06 9.49808e-06 0.0377309 0.0377309 0.037721
1702484091.527075000 0 1 1 1 1 1 -1.02758 -0.629642 1.13133 -0.00489181 0.0102543 -0.209982 0.440202 -0.100017 0.110487 -0.0353619 -0.0176497 -0.264356 0.322728 0.188976 0.120595 5.90311e-09 5.90311e-09 5.901e-09 2.2085e-07 2.20827e-07 2.20879e-07 9.50998e-06 9.51e-06 9.50122e-06 9.50998e-06 9.51e-06 9.50122e-06 0.0379131 0.0379131 0.0379033
1702484091.532066000 0 1 1 1 1 1 -1.02545 -0.63018 1.13186 -0.00484266 0.00992439 -0.211719 0.439087 -0.106574 0.110589 -0.0323967 -0.0159651 -0.291517 0.264191 -0.407003 0.12156 5.90012e-09 5.90012e-09 5.89801e-09 2.20736e-07 2.20714e-07 2.20765e-07 9.50529e-06 9.50531e-06 9.49654e-06 9.50529e-06 9.50531e-06 9.49654e-06 0.0379276 0.0379276 0.0379178
1702484091.537071000 0 1 1 1 1 1 -1.02328 -0.630659 1.13239 -0.00478464 0.0095274 -0.213555 0.445043 -0.103896 0.110292 -0.0309035 -0.0201619 -0.308266 0.738619 -0.0797169 0.0840134 5.90191e-09 5.90191e-09 5.8998e-09 2.20882e-07 2.20862e-07 2.20911e-07 9.50857e-06 9.50859e-06 9.4998e-06 9.50857e-06 9.50859e-06 9.4998e-06 0.0379742 0.0379742 0.0379643
1702484091.542063000 0 1 1 1 1 1 -1.02116 -0.631125 1.13292 -0.00472351 0.00917109 -0.214773 0.441194 -0.0997731 0.110572 -0.0312971 -0.0210018 -0.265153 0.271417 0.189111 0.114821 5.89923e-09 5.89924e-09 5.89712e-09 2.2067e-07 2.20651e-07 2.20699e-07 9.50305e-06 9.50307e-06 9.4943e-06 9.50305e-06 9.50307e-06 9.4943e-06 0.0377924 0.0377924 0.0377826
1702484091.547062000 0 1 1 1 1 1 -1.01904 -0.631658 1.13345 -0.00465755 0.0087968 -0.216657 0.440642 -0.106154 0.11051 -0.0306886 -0.0228307 -0.305347 0.318987 -0.387166 0.1104 5.89884e-09 5.89884e-09 5.89673e-09 2.20585e-07 2.20568e-07 2.20614e-07 9.50163e-06 9.50165e-06 9.49288e-06 9.50163e-06 9.50165e-06 9.49288e-06 0.0376857 0.0376857 0.0376759
1702484091.552064000 0 1 1 1 1 1 -1.01684 -0.632138 1.13399 -0.00454858 0.00841679 -0.218402 0.446735 -0.103182 0.110289 -0.0251262 -0.0231945 -0.306846 0.743472 -0.0367086 0.0817861 5.89947e-09 5.89947e-09 5.89736e-09 2.20683e-07 2.20667e-07 2.20712e-07 9.50386e-06 9.50388e-06 9.4951e-06 9.50386e-06 9.50388e-06 9.4951e-06 0.0378694 0.0378694 0.0378595
1702484091.557080000 0 1 1 1 1 1 -1.01473 -0.632607 1.13452 -0.00451265 0.00802417 -0.219646 0.441296 -0.100155 0.109907 -0.0298873 -0.0251141 -0.269387 0.21343 0.115573 0.0790804 5.90489e-09 5.90489e-09 5.90278e-09 2.21142e-07 2.21128e-07 2.2117e-07 9.51512e-06 9.51514e-06 9.50638e-06 9.51512e-06 9.51514e-06 9.50638e-06 0.0381757 0.0381758 0.038166
1702484091.562074000 0 1 1 1 1 1 -1.01258 -0.633145 1.13505 -0.00448154 0.00761858 -0.221631 0.441974 -0.106811 0.110165 -0.0339334 -0.0269909 -0.315397 0.327652 -0.451483 0.0875202 5.90277e-09 5.90277e-09 5.90066e-09 2.2101e-07 2.20997e-07 2.21039e-07 9.51139e-06 9.51141e-06 9.50264e-06 9.51139e-06 9.51141e-06 9.50264e-06 0.0380575 0.0380575 0.0380476
1702484091.567062000 0 1 1 1 1 1 -1.01042 -0.633609 1.13558 -0.00436135 0.00723738 -0.223228 0.446828 -0.102474 0.110368 -0.026987 -0.0261216 -0.300305 0.693207 0.00421564 0.104852 5.89861e-09 5.89862e-09 5.89651e-09 2.20774e-07 2.20762e-07 2.20803e-07 9.50463e-06 9.50465e-06 9.49588e-06 9.50463e-06 9.50465e-06 9.49588e-06 0.0379609 0.0379609 0.037951
1702484091.572061000 0 1 1 1 1 1 -1.00829 -0.634085 1.13611 -0.00429849 0.00684153 -0.224541 0.441521 -0.100204 0.110466 -0.0283099 -0.0274869 -0.271668 0.141929 0.0983368 0.131083 5.89829e-09 5.89829e-09 5.89619e-09 2.2076e-07 2.2075e-07 2.20789e-07 9.50447e-06 9.50449e-06 9.49574e-06 9.50447e-06 9.50449e-06 9.49574e-06 0.0379184 0.0379184 0.0379085
1702484091.577074000 0 1 1 1 1 1 -1.00614 -0.634616 1.13664 -0.00426479 0.00644589 -0.226597 0.442983 -0.106351 0.109766 -0.0325073 -0.0275156 -0.321309 0.380036 -0.419546 0.0627445 5.9027e-09 5.90271e-09 5.9006e-09 2.21056e-07 2.21047e-07 2.21085e-07 9.51315e-06 9.51316e-06 9.50439e-06 9.51315e-06 9.51316e-06 9.50439e-06 0.0380757 0.0380757 0.0380658
1702484091.582061000 0 1 1 1 1 1 -1.00395 -0.63508 1.13718 -0.00410789 0.00608543 -0.228094 0.448073 -0.101643 0.110709 -0.0229402 -0.0249904 -0.293737 0.702061 0.0640597 0.124917 5.89823e-09 5.89823e-09 5.89612e-09 2.20784e-07 2.20776e-07 2.20813e-07 9.5058e-06 9.50581e-06 9.49703e-06 9.5058e-06 9.50581e-06 9.49703e-06 0.0379563 0.0379563 0.0379464
1702484091.587062000 0 1 1 1 1 1 -1.00185 -0.635557 1.13771 -0.00402154 0.00570377 -0.229528 0.441808 -0.100543 0.111234 -0.0231727 -0.0254366 -0.281486 0.136848 0.0325931 0.197993 5.89853e-09 5.89854e-09 5.89643e-09 2.20816e-07 2.20809e-07 2.20845e-07 9.50691e-06 9.50693e-06 9.49817e-06 9.50691e-06 9.50693e-06 9.49817e-06 0.0379694 0.0379695 0.0379596
1702484091.592072000 0 1 1 1 1 1 -0.999667 -0.636089 1.13823 -0.00398624 0.00529475 -0.231627 0.444207 -0.106456 0.10926 -0.030485 -0.0276853 -0.328966 0.400819 -0.439955 0.000587015 5.90204e-09 5.90204e-09 5.89993e-09 2.21037e-07 2.21031e-07 2.21066e-07 9.51358e-06 9.5136e-06 9.50481e-06 9.51358e-06 9.5136e-06 9.50481e-06 0.0380586 0.0380586 0.0380487
1702484091.597073000 0 1 1 1 1 1 -0.997497 -0.636542 1.13877 -0.00382231 0.00498354 -0.233009 0.44781 -0.100784 0.109787 -0.0220425 -0.0218333 -0.289126 0.640536 0.10134 0.0318661 5.90245e-09 5.90245e-09 5.90034e-09 2.21008e-07 2.21002e-07 2.21037e-07 9.51392e-06 9.51394e-06 9.50513e-06 9.51392e-06 9.51394e-06 9.50513e-06 0.0379927 0.0379928 0.0379828
1702484091.602072000 0 1 1 1 1 1 -0.995372 -0.637027 1.13932 -0.00370831 0.00465827 -0.234575 0.441784 -0.100557 0.112534 -0.0192154 -0.0196234 -0.289356 0.0670096 0.00300177 0.300002 5.90211e-09 5.90211e-09 5.9e-09 2.20961e-07 2.20956e-07 2.2099e-07 9.51327e-06 9.51329e-06 9.50451e-06 9.51327e-06 9.51329e-06 9.50451e-06 0.0380003 0.0380003 0.0379904
1702484091.607068000 0 1 1 1 1 1 -0.993213 -0.637548 1.13983 -0.00364768 0.00429282 -0.236655 0.444784 -0.105877 0.109582 -0.0236052 -0.0213697 -0.330476 0.44093 -0.413026 0.0536499 5.90082e-09 5.90082e-09 5.89871e-09 2.20896e-07 2.20892e-07 2.20925e-07 9.51122e-06 9.51123e-06 9.50246e-06 9.51122e-06 9.51123e-06 9.50246e-06 0.0380027 0.0380027 0.0379929
1702484091.612064000 0 1 1 1 1 1 -0.99102 -0.638 1.14035 -0.00352593 0.00403568 -0.238007 0.44866 -0.099715 0.107848 -0.0209383 -0.0126838 -0.28657 0.64294 0.170067 -0.126285 5.89949e-09 5.8995e-09 5.89739e-09 2.20814e-07 2.2081e-07 2.20843e-07 9.50878e-06 9.50879e-06 9.5e-06 9.50878e-06 9.50879e-06 9.5e-06 0.0379591 0.0379591 0.0379492
1702484091.617073000 0 1 1 1 1 1 -0.988916 -0.638488 1.1409 -0.00342887 0.00374695 -0.239735 0.441621 -0.1009 0.111815 -0.0200086 -0.0109315 -0.303822 0.0555009 -0.0671708 0.256635 5.90272e-09 5.90273e-09 5.90061e-09 2.21037e-07 2.21034e-07 2.21066e-07 9.51473e-06 9.51474e-06 9.50597e-06 9.51473e-06 9.51474e-06 9.50597e-06 0.0380891 0.0380891 0.0380792
1702484091.622073000 0 1 1 1 1 1 -0.986725 -0.639015 1.14142 -0.003386 0.00337177 -0.241804 0.44595 -0.106363 0.110069 -0.0258305 -0.0170664 -0.335957 0.489598 -0.461505 0.118688 5.90274e-09 5.90275e-09 5.90064e-09 2.21088e-07 2.21086e-07 2.21117e-07 9.51537e-06 9.51538e-06 9.50663e-06 9.51537e-06 9.51538e-06 9.50663e-06 0.0381583 0.0381583 0.0381485
1702484091.627076000 0 1 1 1 1 1 -0.98456 -0.639453 1.14193 -0.00331057 0.00311934 -0.243111 0.447819 -0.0990405 0.10737 -0.0262632 -0.00991646 -0.28839 0.559889 0.199794 -0.134523 5.90382e-09 5.90382e-09 5.90171e-09 2.21156e-07 2.21153e-07 2.21184e-07 9.51727e-06 9.51729e-06 9.5085e-06 9.51727e-06 9.51729e-06 9.5085e-06 0.038156 0.038156 0.0381461
1702484091.632061000 0 1 1 1 1 1 -0.982444 -0.63995 1.1425 -0.00322084 0.00283928 -0.245012 0.441194 -0.101298 0.112672 -0.0240766 -0.00826327 -0.319655 -0.015962 -0.120389 0.333373 5.89873e-09 5.89873e-09 5.89663e-09 2.20788e-07 2.20786e-07 2.20817e-07 9.50766e-06 9.50768e-06 9.49891e-06 9.50766e-06 9.50768e-06 9.49891e-06 0.0379365 0.0379365 0.0379266
1702484091.637073000 0 1 1 1 1 1 -0.980262 -0.640467 1.14302 -0.00314142 0.00252191 -0.246966 0.446283 -0.105869 0.111704 -0.0231691 -0.0103509 -0.33341 0.536368 -0.427995 0.275789 5.90284e-09 5.90285e-09 5.90074e-09 2.21072e-07 2.2107e-07 2.211e-07 9.51549e-06 9.5155e-06 9.50674e-06 9.51549e-06 9.5155e-06 9.50674e-06 0.0380947 0.0380947 0.0380848
1702484091.642059000 0 1 1 1 1 1 -0.978085 -0.640901 1.14351 -0.00308087 0.00229548 -0.248302 0.447974 -0.0978894 0.105838 -0.0249237 -0.0034651 -0.289868 0.530332 0.281582 -0.27815 5.89806e-09 5.89806e-09 5.89595e-09 2.20695e-07 2.20694e-07 2.20724e-07 9.50604e-06 9.50605e-06 9.49727e-06 9.50604e-06 9.50605e-06 9.49727e-06 0.0378305 0.0378305 0.0378206
1702484091.647072000 0 1 1 1 1 1 -0.975979 -0.641405 1.14407 -0.00302554 0.00204407 -0.250349 0.440897 -0.101853 0.110944 -0.025859 -0.00178958 -0.333076 -0.00435408 -0.195339 0.155725 5.90249e-09 5.9025e-09 5.90038e-09 2.20932e-07 2.20931e-07 2.20961e-07 9.51351e-06 9.51352e-06 9.50471e-06 9.51351e-06 9.51352e-06 9.50471e-06 0.0379186 0.0379186 0.0379086
1702484091.652059000 0 1 1 1 1 1 -0.973776 -0.64192 1.14463 -0.00292859 0.00175821 -0.252209 0.447581 -0.105814 0.114474 -0.0217675 -0.00428371 -0.33238 0.615567 -0.424799 0.488879 5.89802e-09 5.89802e-09 5.89591e-09 2.20567e-07 2.20567e-07 2.20596e-07 9.50435e-06 9.50436e-06 9.49559e-06 9.50435e-06 9.50436e-06 9.49559e-06 0.0377029 0.0377029 0.037693
1702484091.657060000 0 1 1 1 1 1 -0.971629 -0.642345 1.14511 -0.00289103 0.00157588 -0.253594 0.446834 -0.0973458 0.107571 -0.0238864 0.00360006 -0.296648 0.443634 0.282907 -0.109406 5.89822e-09 5.89823e-09 5.89612e-09 2.20539e-07 2.20539e-07 2.20568e-07 9.50396e-06 9.50397e-06 9.4952e-06 9.50396e-06 9.50397e-06 9.4952e-06 0.0376844 0.0376844 0.0376746
1702484091.662064000 0 1 1 1 1 1 -0.969501 -0.64286 1.14565 -0.00288315 0.00138916 -0.255752 0.44074 -0.102605 0.109185 -0.0280311 0.00887788 -0.344871 -0.0357331 -0.282114 -0.0202547 5.8996e-09 5.8996e-09 5.89749e-09 2.20591e-07 2.20591e-07 2.20621e-07 9.50562e-06 9.50563e-06 9.49681e-06 9.50562e-06 9.50563e-06 9.49681e-06 0.0377139 0.0377139 0.0377039
1702484091.667061000 0 1 1 1 1 1 -0.967309 -0.643356 1.14621 -0.00275772 0.00116665 -0.257478 0.447956 -0.104675 0.113958 -0.0205136 0.00722308 -0.327407 0.663779 -0.340978 0.418973 5.89855e-09 5.89855e-09 5.89644e-09 2.20554e-07 2.20553e-07 2.20583e-07 9.50364e-06 9.50365e-06 9.49485e-06 9.50364e-06 9.50365e-06 9.49485e-06 0.0377668 0.0377668 0.0377569
1702484091.672072000 0 1 1 1 1 1 -0.965142 -0.643784 1.14671 -0.0026816 0.000985605 -0.258957 0.446446 -0.0962214 0.108521 -0.0192815 0.00884301 -0.300792 0.370775 0.348598 -0.0409507 5.90226e-09 5.90226e-09 5.90014e-09 2.20916e-07 2.20915e-07 2.20944e-07 9.51147e-06 9.51148e-06 9.5027e-06 9.51147e-06 9.51148e-06 9.5027e-06 0.0380818 0.0380818 0.038072
1702484091.677066000 0 1 1 1 1 1 -0.963037 -0.644301 1.14724 -0.00264742 0.00080649 -0.261164 0.440735 -0.102912 0.108251 -0.0224047 0.011403 -0.351053 0.00507222 -0.345335 -0.110562 5.90028e-09 5.90028e-09 5.89817e-09 2.20836e-07 2.20836e-07 2.20865e-07 9.50807e-06 9.50808e-06 9.49926e-06 9.50807e-06 9.50808e-06 9.49926e-06 0.0380233 0.0380233 0.0380133
1702484091.682061000 0 1 1 1 1 1 -0.960817 -0.644795 1.14782 -0.00249101 0.000609249 -0.262801 0.449188 -0.104096 0.115223 -0.0142182 0.0100685 -0.321639 0.741394 -0.305407 0.499658 5.8985e-09 5.8985e-09 5.89639e-09 2.20724e-07 2.20724e-07 2.20753e-07 9.50469e-06 9.5047e-06 9.49589e-06 9.50469e-06 9.5047e-06 9.49589e-06 0.0379104 0.0379104 0.0379004
